"Time (s)","Acceleration x (m/s^2)","Acceleration y (m/s^2)","Acceleration z (m/s^2)"
0.000000000E0,-2.678344727E0,7.687088013E0,6.110107422E0
1.001892090E-1,-1.246612549E0,7.481185913E0,6.677536011E0
2.003784180E-1,-1.548278809E0,8.256896973E0,4.575424194E0
3.005676270E-1,-1.744613647E0,8.067764282E0,5.272140503E0
4.007873540E-1,5.011444092E-1,7.241760254E0,6.474029541E0
5.009765630E-1,7.740936279E-1,6.947265625E0,6.330383301E0
6.011962900E-1,6.639556885E-1,7.258514404E0,6.538681030E0
7.014160160E-1,5.203094482E-1,7.035858154E0,6.284881592E0
8.016052250E-1,-1.143661499E0,6.578567505E0,6.857101440E0
9.018249520E-1,-1.189147949E0,7.083740234E0,7.295242310E0
1.002014161E0,-1.716156006E-1,7.165145874E0,5.425369263E0
1.102233887E0,2.641296387E-1,5.889038086E0,6.031097412E0
1.202423096E0,-5.115966797E-1,6.166763306E0,1.109243774E1
1.302612305E0,1.087738037E0,6.047058105E0,5.913787842E0
1.402832032E0,-6.744079590E-1,5.601730347E0,7.805206299E0
1.503021241E0,8.171844482E-1,6.238586426E0,8.173919678E0
1.603240967E0,-4.472351074E-2,5.728622437E0,7.750137329E0
1.703430176E0,2.234191895E-1,5.752563477E0,7.759719849E0
1.803649903E0,1.652755737E0,5.091766357E0,7.608886719E0
1.903839112E0,2.306060791E-1,5.800445557E0,7.527481079E0
2.004058838E0,-5.191040039E-2,5.771713257E0,7.410156250E0
2.104248047E0,1.396331787E-1,5.541870117E0,7.685501099E0
2.204467774E0,-1.121520996E-2,5.869888306E0,8.183486938E0
2.304656983E0,3.263702393E-1,6.207458496E0,6.809219360E0
2.404876709E0,-1.883850098E-1,6.011138916E0,8.087722778E0
2.505065918E0,-5.044097900E-1,5.563430786E0,7.596908569E0
2.605285645E0,-5.594787598E-1,6.035079956E0,8.070968628E0
2.705474854E0,-1.931610107E-1,5.948883057E0,7.616058350E0
2.805694581E0,7.669067383E-1,6.190704346E0,7.654373169E0
2.905883790E0,-2.099304199E-1,6.406188965E0,7.383819580E0
3.006072999E0,-6.528472900E-1,6.209854126E0,8.396575928E0
3.106292725E0,-9.425506592E-1,6.528289795E0,7.221023560E0
3.206481934E0,-2.147216797E-1,5.757354736E0,8.703033447E0
3.254058839E0,-4.189086914E0,8.046203613E0,4.199539185E0
3.354278565E0,-4.335128784E0,8.390975952E0,2.897094727E0
3.454467774E0,-2.936920166E0,8.168319702E0,3.035949707E0
3.554687501E0,-1.794891357E0,7.842697144E0,5.530715942E0
3.654876710E0,-2.982406616E0,8.216201782E0,-3.638153076E-1
3.755096437E0,-3.655181885E0,7.524276733E0,3.706329346E0
3.855285646E0,-4.177124023E0,1.003819275E1,-4.362121582E0
3.955505372E0,-1.141510010E-1,9.446823120E0,5.636062622E0
4.055694581E0,-2.867492676E0,8.290420532E0,-1.649490356E0
4.155914308E0,-1.960083008E0,8.347885132E0,2.557113647E0
4.256103517E0,4.315109253E0,6.813201904E0,1.288192749E0
4.356323243E0,3.850646973E0,8.865020752E0,8.377426147E0
4.456512452E0,2.804367065E0,6.825164795E0,7.843521118E0
4.556732179E0,1.231384277E0,5.264144897E0,5.662399292E0
4.656921388E0,1.454040527E0,6.652786255E0,6.890625000E0
4.757141114E0,3.551361084E0,4.119720459E0,7.290451050E0
4.857330323E0,6.448059082E-1,3.379913330E0,8.142791748E0
4.957550050E0,-6.696166992E-1,2.197174072E0,8.851470947E0
5.057739259E0,-8.819580078E-3,1.581863403E0,1.089611816E1
5.157958985E0,1.166732788E0,2.948959351E0,9.292007446E0
5.258178712E0,-2.961120605E-1,1.524398804E0,1.038854980E1
5.358367921E0,-6.626892090E-2,1.246673584E0,8.942459106E0
5.458557130E0,-5.355377197E-1,2.698364258E-1,7.264114380E0
5.558776856E0,8.746490479E-1,-5.800933838E-1,1.353692627E1
5.658966065E0,-4.158325195E-1,-9.512023926E-1,8.492340088E0
5.759185792E0,-1.021560669E0,-8.506469727E-1,9.691833496E0
5.859375001E0,-2.177963257E0,-1.844238281E0,9.196243286E0
5.959594728E0,-4.926498413E0,-3.861694336E-1,7.740570068E0
6.059783937E0,4.005889893E-1,-2.155487061E0,9.359039307E0
6.160023843E0,3.017456055E0,-1.863388062E0,-1.898591614E1
6.260274087E0,4.436950684E-1,-5.609436035E-1,1.540679932E1
6.360463296E0,5.251007080E-1,5.915832520E-2,8.896957397E0
6.460621988E0,1.063781738E0,3.715103149E0,8.657546997E0
6.560841714E0,-3.104858398E-1,2.925018311E0,9.828308105E0
6.661030923E0,-1.823623657E0,2.794189453E-1,9.129196167E0
6.761250650E0,1.262512207E0,-4.532012939E-1,9.342285156E0
6.861439859E0,-8.596817017E0,-1.771539307E1,1.801887512E1
6.961659585E0,4.556579590E-1,-1.221740723E0,9.576919556E0
7.061848794E0,3.718719482E-1,-2.377319336E-1,9.880981445E0
7.162068521E0,5.993194580E-1,-4.244689941E-1,9.617614746E0
7.262288247E0,-1.404876709E-1,1.548355103E0,9.495513916E0
7.362477456E0,1.324752808E0,-2.909265137E1,8.341506958E0
7.462697183E0,2.215393066E0,8.396606445E-1,9.687042236E0
7.562886392E0,-2.218933105E-1,-4.891204834E-1,9.789993286E0
7.663075601E0,1.611785889E-1,-1.754760742E-1,1.005815125E1
7.763295327E0,8.935546875E-2,-2.975769043E-1,9.248916626E0
7.863484536E0,-3.942871094E-1,-5.577087402E-2,9.605651855E0
7.963704263E0,3.189086914E-2,-8.689880371E-2,9.450027466E0
8.063923990E0,-2.626037598E-1,-3.502502441E-1,9.892944336E0
8.164113199E0,-1.599121094E-2,-5.106658936E-1,9.600860596E0
8.264332925E0,1.659698486E-1,-1.108398438E-1,9.296798706E0
8.364552652E0,5.945281982E-1,-5.346069336E-1,9.524246216E0
8.464741861E0,1.779327393E-1,-3.933563232E-1,9.521850586E0
8.564931070E0,5.370635986E-1,-7.740325928E-1,9.718170166E0
8.665150796E0,5.849456787E-1,1.367187500E-2,9.789993286E0
8.765340005E0,1.195465088E0,-2.137908936E-1,9.373413086E0
8.865559732E0,9.105529785E-1,-4.005279541E-1,9.509872437E0
8.965748941E0,1.427703857E0,-6.279754639E-1,9.493118286E0
9.065968667E0,8.842163086E-1,-5.393981934E-1,9.658325195E0
9.166188394E0,1.212234497E0,-4.627838135E-1,9.837890625E0
9.266377603E0,5.179138184E-1,-8.075408936E-1,9.658325195E0
9.366597329E0,8.626708984E-1,-1.826629639E-1,9.347076416E0
9.466786538E0,1.339126587E0,-5.298156738E-1,9.761276245E0
9.566975747E0,8.459167480E-1,-1.228027344E-1,9.897735596E0
9.667195474E0,1.334335327E0,-2.568817139E-1,9.797180176E0
9.767384683E0,1.288848877E0,-5.034790039E-1,9.787612915E0
9.867634927E0,1.080551147E0,-5.417938232E-1,9.998291016E0
9.967824136E0,1.090118408E0,-3.454589844E-1,9.682266235E0
1.006801334E1,1.360671997E0,-5.010833740E-1,9.509872437E0
1.016823307E1,1.248138428E0,-5.106658936E-1,9.569732666E0
1.026842228E1,1.425308228E0,-2.329406738E-1,9.801971436E0
1.036864201E1,1.633605957E0,-1.778717041E-1,9.512268066E0
1.046883122E1,1.245742798E0,-5.202484131E-1,9.758880615E0
1.056905094E1,1.126037598E0,-3.191223145E-1,9.399749756E0
1.066924015E1,1.331939697E0,-5.848846436E-1,9.804367065E0
1.076945988E1,1.509109497E0,-3.622283936E-1,9.387771606E0
1.086964909E1,1.047027588E0,-5.274200439E-1,9.541000366E0
1.096986881E1,1.712615967E0,-3.646240234E-1,9.840270996E0
1.107005802E1,1.636001587E0,-4.747467041E-1,9.665496826E0
1.117027775E1,1.513900757E0,-5.729217529E-1,1.003421021E1
1.127046696E1,1.430099487E0,-1.156158447E-1,9.404525757E0
1.137071720E1,1.595306396E0,-1.347808838E-1,9.459594727E0
1.147087589E1,1.449249268E0,-2.377319336E-1,9.433258057E0
1.157109562E1,1.030273438E0,-7.141723633E-1,9.921676636E0
1.167128483E1,1.212234497E0,-3.957366943E-1,9.555374146E0
1.177150456E1,8.626708984E-1,-4.699707031E-1,9.751693726E0
1.187169377E1,1.202651978E0,1.693725586E-3,9.375808716E0
1.197191349E1,7.286071777E-1,-3.741912842E-1,9.464385986E0
1.207210270E1,3.048248291E-1,-4.388427734E-1,9.813934326E0
1.217232243E1,2.709960938E-2,-3.598327637E-1,9.572128296E0
1.227251164E1,-2.003479004E-1,-2.928009033E-1,9.852249146E0
1.237276188E1,2.066650391E-1,-5.250244141E-1,9.835494995E0
1.247295109E1,-3.032989502E-1,-3.981323242E-1,9.519454956E0
1.257314030E1,1.539916992E-1,-1.156158447E-1,9.557754517E0
1.267336003E1,2.090606689E-1,4.089355469E-3,9.543395996E0
1.277354923E1,1.539916992E-1,-3.574371338E-1,9.696624756E0
1.287376896E1,7.525482178E-1,-2.137908936E-1,9.473968506E0
1.297398869E1,4.748077393E-1,-3.119506836E-1,9.416503906E0
1.307417790E1,5.298767090E-1,-2.975769043E-1,9.509872437E0
1.317439762E1,2.449645996E-1,-3.023681641E-1,9.502700806E0
1.327458683E1,2.784881592E-1,-3.430786133E-1,9.739715576E0
1.337480656E1,7.333831787E-1,-3.215179443E-1,9.593673706E0
1.347499577E1,9.871673584E-1,-1.563262939E-1,9.859436035E0
1.357521549E1,4.628448486E-1,-3.023681641E-1,9.572128296E0
1.367540470E1,5.083312988E-1,-1.802673340E-1,9.691833496E0
1.377562443E1,6.232604980E-1,-3.550415039E-1,9.727752686E0
1.387581364E1,1.126037598E0,-3.694152832E-1,9.373413086E0
1.397603337E1,7.836608887E-1,-2.113952637E-1,9.768447876E0
1.407622257E1,5.753784180E-1,-1.587219238E-1,9.471572876E0
1.417644230E1,5.155181885E-1,-3.454589844E-1,9.526641846E0
1.427663151E1,2.138519287E-1,-2.640686035E-1,9.246520996E0
1.437688175E1,2.832794189E-1,-3.334960938E-1,1.001745605E1
1.447707096E1,4.149627686E-1,-5.824890137E-1,9.849853516E0
1.457726017E1,4.891815186E-1,-4.244689941E-1,9.505096436E0
1.467744938E1,6.926879883E-1,-3.095550537E-1,9.809158325E0
1.477766911E1,1.080551147E0,-5.585479736E-1,9.751693726E0
1.487785832E1,6.807098389E-1,-2.712402344E-1,9.507476807E0
1.497807804E1,8.459167480E-1,-4.460296631E-1,9.562545776E0
1.507829777E1,9.847869873E-1,-5.944671631E-1,9.687042236E0
1.517848698E1,1.003936768E0,-6.638946533E-1,1.000547791E1
1.527870670E1,1.145187378E0,-3.047637939E-1,9.572128296E0
1.537892643E1,1.006332397E0,-5.250244141E-1,9.722961426E0
1.547911564E1,1.202651978E0,-3.430786133E-1,9.631988525E0
1.557930485E1,1.056610107E0,-8.769836426E-1,9.481140137E0
1.567952458E1,8.531036377E-1,-6.279754639E-1,9.098068237E0
1.577971378E1,1.154769897E0,-1.946258545E-1,9.852249146E0
1.587993351E1,5.897369385E-1,-7.883911133E-1,9.732543945E0
1.598015324E1,5.801544189E-1,-4.172973633E-1,9.699020386E0
1.608034245E1,3.958129883E-1,-4.627838135E-1,9.703811646E0
1.618050714E1,5.370635986E-1,-5.010833740E-1,9.572128296E0
1.628075739E1,2.808837891E-1,-3.478546143E-1,9.660705566E0
1.638097711E1,-1.788024902E-1,-4.939117432E-1,9.574523926E0
1.648116632E1,5.822753906E-2,-1.108398438E-1,9.842666626E0
1.658135553E1,3.838348389E-1,-7.716369629E-1,9.892944336E0
1.668154474E1,9.652709961E-2,-2.353363037E-1,9.538604736E0
1.678176447E1,4.125671387E-1,-7.285308838E-1,9.366226196E0
1.688195368E1,5.059356689E-1,-7.213592529E-1,9.840270996E0
1.698217340E1,4.341125488E-1,-3.957366943E-1,9.670288086E0
1.708236261E1,5.825500488E-1,-5.513610840E-1,9.823516846E0
1.718258234E1,6.208648682E-1,-4.651794434E-1,9.675079346E0
1.728277155E1,7.740936279E-1,-2.449035645E-1,9.670288086E0
1.738302179E1,1.202651978E0,-4.579925537E-1,9.722961426E0
1.748321100E1,4.891815186E-1,-2.449035645E-1,9.694229126E0
1.758343073E1,7.980346680E-1,-4.939117432E-1,9.708602905E0
1.768361994E1,7.860565186E-1,-2.209625244E-1,9.560150146E0
1.778380915E1,8.099975586E-1,-1.371765137E-1,9.193847656E0
1.788402887E1,8.554992676E-1,-4.029235840E-1,9.734939575E0
1.798421808E1,6.663513184E-1,-4.005279541E-1,9.548187256E0
1.808443781E1,9.368896484E-1,-4.005279541E-1,9.737319946E0
1.818465753E1,6.615600586E-1,-2.808227539E-1,9.778030396E0
1.828484674E1,7.309875488E-1,-4.125061035E-1,9.888168335E0
1.838506647E1,6.400146484E-1,-5.058746338E-1,9.907318115E0
1.848528620E1,3.551025391E-1,-6.255950928E-1,9.756484985E0
1.858547540E1,7.860565186E-1,-3.717956543E-1,9.598464966E0
1.868566461E1,8.818359375E-1,-4.460296631E-1,9.873794556E0
1.878588434E1,5.346679688E-1,-1.587219238E-1,9.682266235E0
1.888613458E1,2.114562988E-1,-5.370025635E-1,9.371017456E0
1.898629328E1,6.424102783E-1,-3.311004639E-1,9.409317017E0
1.908648248E1,5.801544189E-1,-2.281494141E-1,9.531433105E0
1.918670221E1,3.718719482E-1,-2.224731445E-2,9.665496826E0
1.928692194E1,4.173583984E-1,-4.819335938E-1,9.900131226E0
1.938711115E1,5.822753906E-2,-1.802673340E-1,9.679870605E0
1.948733087E1,5.554199219E-3,-5.226440430E-1,9.466781616E0
1.958752008E1,1.923065186E-1,-2.760314941E-1,9.892944336E0
1.968773981E1,3.598937988E-1,-4.412384033E-1,9.667892456E0
1.978792902E1,1.348419189E-1,-5.753021240E-1,9.718170166E0
1.988814874E1,4.795989990E-1,-3.430786133E-1,9.371017456E0
1.998833795E1,3.814392090E-1,-1.778717041E-1,9.811553955E0
2.008855768E1,4.341125488E-1,-5.178527832E-1,9.533813477E0
2.018877741E1,5.346679688E-1,-6.543121338E-1,9.569732666E0
2.028896662E1,1.214630127E0,-1.772415161E0,9.605651855E0
2.038918634E1,5.993194580E-1,-1.224136353E0,9.368621826E0
2.048937555E1,3.072204590E-1,-7.022094727E-1,1.031912231E1
2.058959528E1,9.249267578E-1,-2.744461060E0,8.614440918E0
2.068978449E1,-4.086456299E-1,-9.272613525E-1,1.098710632E1
2.079000421E1,1.015899658E0,-1.679031372E0,7.575363159E0
2.089019342E1,-1.043106079E0,-7.333221436E-1,1.052742004E1
2.099041315E1,4.864501953E-2,-9.104919434E-1,1.012757874E1
2.109060236E1,4.795989990E-1,-6.255950928E-1,9.636764526E0
2.119082208E1,-1.093750000E-1,-7.453002930E-1,9.722961426E0
2.129101129E1,8.818359375E-1,-2.138717651E0,9.100463867E0
2.139126154E1,-1.780517578E0,-2.991058350E0,9.854644775E0
2.149145075E1,3.206604004E0,-1.430038452E0,9.945617676E0
2.159167047E1,4.097244263E0,-4.398849487E0,8.533050537E0
2.169185968E1,5.272796631E0,-4.992614746E0,7.982376099E0
2.179204889E1,5.773178101E0,-4.274353027E0,4.951324463E0
2.189226862E1,7.868103027E0,-7.654968262E0,7.845901489E0
2.199245783E1,5.766006470E0,-3.192169189E0,3.222702026E0
2.209267755E1,5.579254150E0,-8.530426025E-1,6.441497803E-1
2.219286676E1,5.390106201E0,3.632202148E-1,4.328826904E0
2.229308649E1,6.110763550E0,2.103805542E0,1.343261719E0
2.239333673E1,4.892120361E0,5.561035156E0,-3.446502686E-1
2.249349542E1,-2.280914307E0,3.932968140E0,3.986357117E1
2.259368463E1,7.585601807E0,6.433410645E-1,2.772598267E0
2.269393488E1,5.200973511E0,1.727905273E0,9.722961426E0
2.279412409E1,4.691009521E0,2.043945312E0,1.023052979E1
2.289431330E1,2.895355225E0,1.986480713E0,1.007730103E1
2.299453302E1,2.411727905E0,2.869949341E0,7.261718750E0
2.309472223E1,3.249694824E0,4.354354858E0,7.443679810E0
2.319494196E1,3.311614990E-1,5.680740356E0,8.475585938E0
2.329516168E1,-6.387329102E-2,7.098114014E0,6.095748901E0
2.339535089E1,4.317169189E-1,6.887420654E0,4.932159424E0
2.349557062E1,1.039840698E0,7.050216675E0,8.145187378E0
2.359575983E1,2.258499146E0,6.765319824E0,6.193908691E0
2.369597956E1,7.716979980E-1,6.801223755E0,5.889846802E0
2.379616876E1,1.643188477E0,5.051071167E0,9.224975586E0
2.389638849E1,6.878967285E-1,5.472442627E0,8.147583008E0
2.399657770E1,-2.123260498E-1,5.589767456E0,7.678314209E0
2.409679743E1,-1.404876709E-1,5.726226807E0,8.123641968E0
2.419698664E1,5.583190918E-2,5.709472656E0,7.541839600E0
2.429720636E1,-3.655548096E-1,5.874664307E0,7.352706909E0
2.439745661E1,-4.948425293E-1,5.956069946E0,7.759719849E0
2.449761530E1,8.602752686E-1,5.934524536E0,9.615219116E0
2.459783502E1,4.125671387E-1,6.190704346E0,6.402206421E0
2.469802423E1,-3.847045898E-1,5.939315796E0,7.515502930E0
2.479824396E1,-4.472351074E-2,6.430130005E0,7.278488159E0
2.489843317E1,6.208648682E-1,6.439697266E0,7.582550049E0
2.499865290E1,-1.524658203E-1,6.221832275E0,7.716613770E0
2.509887262E1,-4.397735596E-1,6.353515625E0,7.127639771E0
2.519909235E1,1.991271973E-2,6.214645386E0,7.896179199E0
2.529931207E1,-2.578125000E-1,6.305633545E0,7.625640869E0
2.529931207E1,-3.908966064E0,5.089370728E0,6.952865601E0
2.539953180E1,-2.872283936E0,5.027130127E0,7.280883789E0
2.549972101E1,-1.962478638E0,4.782913208E0,7.450866699E0
2.559994074E1,-3.432525635E0,4.040710449E0,9.438049316E0
2.570016046E1,-2.424560547E0,4.023956299E0,6.761337280E0
2.580034967E1,-2.884246826E0,4.220275879E0,9.138778687E0
2.590053888E1,-1.648834229E0,5.225845337E0,6.916961670E0
2.600075861E1,-3.027908325E0,5.199508667E0,7.632827759E0
2.610094782E1,-3.042266846E0,5.156402588E0,7.798019409E0
2.620116754E1,-3.269714355E0,5.221054077E0,7.017517090E0
2.630138727E1,-4.280075073E0,5.185134888E0,6.335159302E0
2.640157648E1,-3.784469604E0,5.491592407E0,6.806823730E0
2.650179620E1,-3.829956055E0,5.922561646E0,6.904983521E0
2.660198541E1,-4.117263794E0,5.762145996E0,6.095748901E0
2.670220514E1,-4.330352783E0,5.541870117E0,6.210662842E0
2.680242487E1,-4.378234863E0,5.829177856E0,5.894638062E0
2.690261408E1,-3.832351685E0,5.855514526E0,6.191513062E0
2.700283380E1,-3.920944214E0,5.616088867E0,6.497970581E0
2.710305353E1,-4.035858154E0,5.912979126E0,5.880264282E0
2.720324274E1,-4.284851074E0,6.157180786E0,5.504379272E0
2.730343195E1,-4.141204834E0,5.764541626E0,5.935333252E0
2.740365167E1,-3.657577515E0,5.912979126E0,5.564239502E0
2.750387140E1,-3.801223755E0,5.857910156E0,5.607330322E0
2.760406061E1,-3.916152954E0,5.786087036E0,6.746963501E0
2.770428034E1,-4.011917114E0,5.898605347E0,6.644012451E0
2.780450006E1,-3.841934204E0,6.030288696E0,5.621688843E0
2.790468927E1,-4.732574463E0,6.494766235E0,5.853927612E0
2.800490900E1,-3.205078125E0,6.106903076E0,6.222640991E0
2.810509821E1,-3.765319824E0,5.893829346E0,5.841964722E0
2.820531793E1,-3.573776245E0,5.788482666E0,5.626480103E0
2.830550714E1,-3.583358765E0,5.328796387E0,7.163558960E0
2.840572687E1,-3.331970215E0,3.865936279E0,9.189056396E0
2.850594660E1,-3.310424805E0,3.085418701E0,7.237777710E0
2.860613580E1,-1.136489868E0,2.168441772E0,9.943222046E0
2.870635553E1,-3.847045898E-1,2.460540771E0,8.049407959E0
2.880654474E1,-2.266845703E-1,2.151687622E0,8.942459106E0
2.890676447E1,1.106887817E0,1.021621704E0,1.106132507E1
2.900695368E1,2.018737793E-1,2.723907471E0,9.957595825E0
2.910717340E1,4.053802490E-1,2.362380981E0,8.221801758E0
2.920736261E1,-1.933746338E0,3.669616699E0,8.255310059E0
2.930758234E1,-6.744079590E-1,4.770950317E0,8.698242188E0
2.940777155E1,6.448059082E-1,5.618484497E0,7.568176270E0
2.950799127E1,-2.078247070E-2,5.728622437E0,8.056594849E0
2.960821100E1,1.154769897E0,5.151626587E0,8.118850708E0
2.970843073E1,1.132965088E-1,4.933746338E0,7.850692749E0
2.980861994E1,6.301879883E-2,5.170776367E0,8.360656738E0
2.990883966E1,1.324462891E-1,5.283294678E0,8.051803589E0
3.000902887E1,-2.697753906E-1,5.905792236E0,8.147583008E0
3.010924860E1,5.849456787E-1,5.707077026E0,7.204254150E0
3.020943781E1,-3.655548096E-1,5.493988037E0,8.535430908E0
3.030965753E1,1.587829590E-1,5.565811157E0,7.956039429E0
3.040990778E1,1.659698486E-1,5.149230957E0,8.080535889E0
3.051009699E1,1.132965088E-1,5.731018066E0,8.173919678E0
3.061028620E1,3.694763184E-1,5.776504517E0,7.936889648E0
3.071047540E1,-1.838684082E-2,5.673553467E0,7.175537109E0
3.081069513E1,1.085052490E-1,5.699890137E0,7.996749878E0
3.091091486E1,1.396331787E-1,5.606521606E0,7.829147339E0
3.101110407E1,-4.028320312E-3,5.980010986E0,8.418121338E0
3.111129328E1,1.252593994E-1,6.018325806E0,7.702255249E0
3.121151300E1,3.144073486E-1,5.970443726E0,7.168350220E0
3.131173273E1,-3.416137695E-1,6.023117065E0,7.352706909E0
3.141192194E1,-2.841156006E0,5.654403687E0,6.368682861E0
3.151214166E1,-4.589233398E-1,5.987197876E0,7.297637939E0
3.161236139E1,4.137939453E0,7.138809204E0,1.329750061E1
3.171255060E1,-3.559722900E-1,9.825103760E0,4.855545044E0
3.181273981E1,-4.828643799E-1,6.676727295E0,6.493179321E0
3.191295954E1,1.403762817E0,5.283294678E0,8.753311157E0
3.201317926E1,2.399749756E0,5.242599487E0,8.092514038E0
3.211336847E1,2.610443115E0,5.901000977E0,8.863449097E0
3.221358820E1,4.013442993E0,5.312026978E0,7.493957520E0
3.231377741E1,3.520233154E0,7.035858154E0,6.543457031E0
3.241399713E1,3.668685913E0,5.922561646E0,7.407775879E0
3.251418634E1,4.410888672E0,6.734191895E0,5.966461182E0
3.261440607E1,3.982315063E0,6.724609375E0,5.466064453E0
3.271459528E1,4.116394043E0,7.110076904E0,5.145248413E0
3.281484552E1,3.967956543E0,7.162750244E0,5.633666992E0
3.291506525E1,4.085266113E0,7.019104004E0,5.719863892E0
3.301522394E1,3.874588013E0,7.280059814E0,6.459671021E0
3.311544367E1,4.339050293E0,7.744537354E0,5.865905762E0
3.321563288E1,7.669387817E0,5.584976196E0,6.004760742E0
3.331585260E1,6.845779419E0,7.308792114E0,3.799713135E0
3.341608198E1,4.913665771E0,7.579345703E0,4.956100464E0
3.351627118E1,-5.546875000E-1,5.922561646E0,5.870697021E0
3.361649091E1,4.624938965E-2,5.855514526E0,9.789993286E0
3.371668012E1,-2.575393677E0,2.357589722E0,1.114990234E1
3.381689985E1,-2.522720337E0,-1.922302246E-1,7.125259399E0
3.391711957E1,1.515960693E-1,-3.903244019E0,8.408538818E0
3.401730878E1,2.497558594E-1,-5.876068115E0,1.039813232E1
3.411752851E1,3.908096313E0,-3.560882568E0,9.244125366E0
3.421771772E1,6.974792480E-1,-2.792343140E0,9.014282227E0
3.431793745E1,1.185897827E0,-4.532012939E-1,1.450657654E1
3.441815717E1,1.214630127E0,-6.950225830E-1,1.139891052E1
3.451834638E1,4.580871582E0,-1.346237183E0,1.026884460E1
3.461856611E1,9.680175781E-1,-4.627838135E-1,1.876107788E1
3.471878583E1,-1.644439697E-1,9.737396240E-1,5.238616943E0
3.481897504E1,-4.589233398E-1,-4.101104736E-1,1.005575562E1
3.491919477E1,5.801544189E-1,2.961730957E-1,1.012278748E1
3.501938398E1,4.331878662E0,-1.652694702E0,1.022334290E1
3.511957319E1,8.147888184E-1,-3.646240234E-1,9.866607666E0
3.521979291E1,5.083312988E-1,-6.758728027E-1,9.823516846E0
3.532001264E1,7.046661377E-1,-5.896759033E-1,1.001745605E1
3.542020185E1,5.322723389E-1,-7.333221436E-1,9.818725586E0
3.552042158E1,8.531036377E-1,-4.316558838E-1,9.742111206E0
3.562061079E1,8.531036377E-1,-4.699707031E-1,9.646347046E0
3.572083051E1,-1.261291504E-1,5.284118652E-1,9.995895386E0
3.582105024E1,9.464721680E-1,6.960144043E-1,9.725357056E0
3.592126996E1,-1.476745605E-1,-1.717346191E0,9.758880615E0
3.602142866E1,7.214202881E-1,-5.058746338E-1,9.859436035E0
3.612167890E1,1.616851807E0,-4.436340332E-1,9.749298096E0
3.622186811E1,9.776000977E-1,-7.740325928E-1,9.849853516E0
3.632205732E1,6.495971680E-1,-7.668457031E-1,9.950408936E0
3.642227704E1,8.770446777E-1,-1.054153442E0,9.335098267E0
3.652246625E1,1.116455078E0,-9.296569824E-1,9.397354126E0
3.662268598E1,1.061401367E0,-1.430038452E0,9.548187256E0
3.672290571E1,1.126037598E0,-1.367782593E0,9.584091187E0
3.682309492E1,9.680175781E-1,-9.200744629E-1,9.732543945E0
3.692334516E1,1.212234497E0,-6.064300537E-1,9.438049316E0
3.702350385E1,1.099700928E0,-2.496948242E-1,9.502700806E0
3.712372358E1,8.746490479E-1,-3.406829834E-1,9.591278076E0
3.722391279E1,8.099975586E-1,-1.682891846E-1,9.756484985E0
3.732413251E1,8.722534180E-1,-5.561523438E-1,9.730148315E0
3.742435224E1,1.097305298E0,-1.419525146E-1,9.126800537E0
3.752454145E1,1.078155518E0,-5.393981934E-1,9.665496826E0
3.762476118E1,1.106887817E0,-3.550415039E-1,9.569732666E0
3.772495038E1,1.047027588E0,-2.066040039E-1,9.670288086E0
3.782517011E1,7.693023682E-1,-4.244689941E-1,9.543395996E0
3.792538984E1,1.020690918E0,-5.753021240E-1,9.576919556E0
3.802557905E1,1.075759888E0,-4.196929932E-1,9.541000366E0
3.812579877E1,5.418548584E-1,-5.800933838E-1,9.936050415E0
3.822598798E1,8.937988281E-1,-3.909606934E-1,9.825912476E0
3.832620771E1,9.009857178E-1,-5.370025635E-1,9.754089355E0
3.842642744E1,5.562133789E-1,-4.555969238E-1,9.761276245E0
3.852661664E1,9.704132080E-1,-2.377319336E-1,9.804367065E0
3.862683637E1,7.477569580E-1,-5.034790039E-1,9.902526855E0
3.872702558E1,6.184692383E-1,-2.329406738E-1,9.691833496E0
3.882724531E1,7.812805176E-1,-8.927917480E-2,9.782821655E0
3.892743452E1,9.416809082E-1,-3.598327637E-1,9.394958496E0
3.902768476E1,9.081726074E-1,-2.880096436E-1,9.502700806E0
3.912784345E1,8.459167480E-1,-4.172973633E-1,9.509872437E0
3.922806318E1,9.991455078E-1,-4.508056641E-1,9.555374146E0
3.932825239E1,1.142791748E0,-2.928009033E-1,9.639160156E0
3.942847211E1,1.035064697E0,-5.537567139E-1,9.706207275E0
3.952869184E1,9.057769775E-1,-6.926269531E-1,9.857040405E0
3.962891157E1,1.044631958E0,-4.795379639E-1,9.658325195E0
3.972910078E1,9.919586182E-1,-1.898498535E-1,9.454818726E0
3.982928998E1,8.890075684E-1,-3.095550537E-1,9.373413086E0
3.992954023E1,9.752044678E-1,-5.585479736E-1,9.873794556E0
4.002972944E1,1.121246338E0,-4.747467041E-1,9.710998535E0
4.012991865E1,1.243347168E0,-6.303710938E-1,9.694229126E0
4.023013837E1,1.047027588E0,-9.727478027E-1,9.643951416E0
4.033032758E1,7.238159180E-1,-6.016387939E-1,9.699020386E0
4.043054731E1,1.090118408E0,-5.010833740E-1,9.550582886E0
4.053073652E1,9.632263184E-1,-5.250244141E-1,9.727752686E0
4.063095624E1,8.507080078E-1,-5.250244141E-1,9.730148315E0
4.073117597E1,7.716979980E-1,-7.261505127E-1,9.756484985E0
4.083136518E1,7.357788086E-1,-1.251983643E-1,9.552978516E0
4.093158491E1,7.716979980E-1,-3.981323242E-1,9.447631836E0
4.103180463E1,7.405700684E-1,-5.489654541E-1,9.552978516E0
4.113199384E1,5.681915283E-1,-6.279754639E-1,9.435653687E0
4.123221357E1,1.104492188E0,-6.902313232E-1,9.569732666E0
4.133240278E1,7.597198486E-1,-4.747467041E-1,9.737319946E0
4.143262250E1,9.129486084E-1,-4.675750732E-1,9.572128296E0
4.153281171E1,7.333831787E-1,-4.005279541E-1,9.512268066E0
4.163303144E1,8.890075684E-1,-5.561523438E-1,1.001745605E1
4.173322065E1,7.501525879E-1,-7.572631836E-1,9.653533936E0
4.183344038E1,9.177398682E-1,-2.042083740E-1,9.612823486E0
4.193366010E1,6.567687988E-1,-4.603881836E-1,9.574523926E0
4.203384931E1,7.214202881E-1,-6.662902832E-1,9.730148315E0
4.213406904E1,8.004302979E-1,-6.878356934E-1,9.866607666E0
4.223425825E1,6.064910889E-1,-6.088256836E-1,9.660705566E0
4.233447797E1,1.006332397E0,-5.992584229E-1,9.531433105E0
4.243466718E1,9.081726074E-1,-5.657348633E-1,9.734939575E0
4.253488691E1,8.818359375E-1,-6.782531738E-1,9.907318115E0
4.263510663E1,1.336730957E0,-4.292602539E-1,9.478759766E0
4.273529584E1,9.392852783E-1,-1.970214844E-1,9.445236206E0
4.283551557E1,1.219406128E0,-6.208038330E-1,9.734939575E0
4.293573530E1,7.956390381E-1,-4.029235840E-1,9.622406006E0
4.303592451E1,1.355880737E0,-4.579925537E-1,9.481140137E0
4.313614423E1,8.746490479E-1,-1.850585938E-1,9.493118286E0
4.323636396E1,9.991455078E-1,-4.795379639E-1,9.912109375E0
4.333655317E1,1.090118408E0,-5.585479736E-1,9.586486816E0
4.343677172E1,9.943542480E-1,-3.143463135E-1,9.593673706E0
4.353699145E1,9.225311279E-1,-7.931823730E-1,1.007969666E1
4.363721118E1,1.243347168E0,-2.066040039E-1,9.430862427E0
4.373740039E1,9.632263184E-1,-3.047637939E-1,9.806762695E0
4.383762011E1,8.531036377E-1,-4.747467041E-1,9.957595825E0
4.393780932E1,1.051818848E0,-3.454589844E-1,9.550582886E0
4.403802905E1,1.106887817E0,-3.239135742E-1,9.878585815E0
4.413821826E1,1.164352417E0,-1.946258545E-1,9.754089355E0
4.423843798E1,8.411254883E-1,-4.484100342E-1,9.667892456E0
4.433862719E1,1.161956787E0,-5.393981934E-1,9.579315186E0
4.443884692E1,1.159561157E0,-2.760314941E-1,9.756484985E0
4.453906665E1,1.032669067E0,-5.776977539E-1,9.916885376E0
4.463925586E1,9.416809082E-1,-6.734771729E-1,9.658325195E0
4.473947558E1,9.536590576E-1,-6.255950928E-1,1.007250977E1
4.483966479E1,1.109283447E0,-2.664642334E-1,9.768447876E0
4.493991504E1,1.070968628E0,-6.447448730E-1,9.955200195E0
4.504010424E1,1.013504028E0,-4.986877441E-1,9.557754517E0
4.514029345E1,1.281661987E0,-5.513610840E-1,1.006294250E1
4.524051318E1,8.099975586E-1,-2.760314941E-1,9.406921387E0
4.534070239E1,9.728088379E-1,-4.460296631E-1,9.694229126E0
4.544092212E1,6.663513184E-1,-1.970214844E-1,9.521850586E0
4.554114184E1,1.118850708E0,-4.077148438E-1,9.775634766E0
4.564133105E1,8.147888184E-1,-3.382873535E-1,9.330307007E0
4.574155078E1,1.078155518E0,-3.167419434E-1,9.940841675E0
4.584173999E1,1.070968628E0,-2.161865234E-1,9.708602905E0
4.594195971E1,5.059356689E-1,-7.620544434E-1,9.804367065E0
4.604217944E1,5.298767090E-1,-6.294250488E-2,9.433258057E0
4.614236865E1,6.615600586E-1,-3.885650635E-1,9.754089355E0
4.624258838E1,7.669067383E-1,-2.233581543E-1,9.526641846E0
4.634277758E1,8.578948975E-1,-6.878356934E-1,1.041009521E1
4.644299731E1,7.238159180E-1,-4.843292236E-1,9.438049316E0
4.654318652E1,1.013504028E0,-8.027648926E-1,1.004617310E1
4.664340625E1,7.118377686E-1,-6.351623535E-1,9.746902466E0
4.674362597E1,6.112823486E-1,-5.920715332E-1,9.775634766E0
4.684381518E1,5.657958984E-1,-6.854400635E-1,1.010124207E1
4.694403491E1,8.961944580E-1,-3.239135742E-1,9.382980347E0
4.704425464E1,8.602752686E-1,-4.244689941E-1,9.706207275E0
4.714444384E1,1.023086548E0,-4.244689941E-1,9.574523926E0
4.724466357E1,7.238159180E-1,-6.136169434E-1,9.699020386E0
4.734485278E1,7.118377686E-1,-5.226440430E-1,9.418899536E0
4.744507251E1,8.866119385E-1,-4.364471436E-1,9.687042236E0
4.754526172E1,7.597198486E-1,-5.274200439E-1,9.402145386E0
4.764548144E1,6.974792480E-1,-6.830444336E-1,9.909713745E0
4.774567065E1,3.958129883E-1,-2.999725342E-1,9.315948486E0
4.784589038E1,9.057769775E-1,-2.353363037E-1,9.672683716E0
4.794611010E1,6.112823486E-1,-2.664642334E-1,9.433258057E0
4.804629931E1,5.298767090E-1,-3.622283936E-1,9.675079346E0
4.814651904E1,7.166290283E-1,-6.710815430E-1,9.574523926E0
4.824670825E1,7.046661377E-1,-5.465850830E-1,9.502700806E0
4.834692798E1,8.171844482E-1,-3.813781738E-1,9.581710815E0
4.844711718E1,7.884521484E-1,-2.832183838E-1,9.588882446E0
4.854733691E1,6.950836182E-1,-5.561523438E-1,9.263275146E0
4.864755664E1,8.291625977E-1,-3.981323242E-1,9.778030396E0
4.874774585E1,7.501525879E-1,-3.430786133E-1,9.416503906E0
4.884796557E1,4.772033691E-1,-7.093811035E-1,9.806762695E0
4.894818530E1,8.315582275E-1,-3.741912842E-1,9.359039307E0
4.904840502E1,7.597198486E-1,-6.950225830E-1,9.696624756E0
4.914859423E1,8.219757080E-1,-5.298156738E-1,9.852249146E0
4.924878344E1,3.814392090E-1,-4.053192139E-1,9.948013306E0
4.934900317E1,7.669067383E-1,-4.077148438E-1,9.517059326E0
4.944919238E1,5.729827881E-1,-4.101104736E-1,9.375808716E0
4.954941210E1,1.001541138E0,-5.753021240E-1,9.797180176E0
4.964963183E1,8.171844482E-1,-4.139709473E-2,9.224975586E0
4.974982104E1,8.459167480E-1,-3.909606934E-1,9.718170166E0
4.985004077E1,8.674621582E-1,-5.441894531E-1,9.548187256E0
4.995026049E1,7.525482178E-1,-3.382873535E-1,9.593673706E0
5.005044970E1,7.621154785E-1,-4.986877441E-1,9.598464966E0
5.015063891E1,1.025482178E0,-4.460296631E-1,9.450027466E0
5.025088916E1,6.256561279E-1,-7.764282227E-1,9.993499756E0
5.035107837E1,1.042236328E0,-3.526458740E-1,9.229751587E0
5.045126757E1,5.514221191E-1,-5.178527832E-1,9.517059326E0
5.055148730E1,7.573242188E-1,-4.939117432E-1,9.720565796E0
5.065170703E1,8.650665283E-1,-3.670196533E-1,9.165115356E0
5.075189624E1,7.693023682E-1,-5.896759033E-1,9.651138306E0
5.085211596E1,7.094421387E-1,-6.351623535E-1,9.608047485E0
5.095230517E1,7.453613281E-1,-2.999725342E-1,9.366226196E0
5.105252490E1,6.543731689E-1,-6.591033936E-1,1.005815125E1
5.115274463E1,8.650665283E-1,-2.185668945E-1,9.631988525E0
5.125293383E1,9.512634277E-1,-6.950225830E-1,1.006294250E1
5.135315356E1,8.363342285E-1,-6.974182129E-1,9.730148315E0
5.145334277E1,6.328277588E-1,-2.856140137E-1,9.816329956E0
5.155353198E1,6.184692383E-1,-3.646240234E-1,9.833099365E0
5.165375171E1,1.396331787E-1,-5.034790039E-1,9.684661865E0
5.175397143E1,-4.472351074E-2,-5.776977539E-1,9.809158325E0
5.185419116E1,1.539916992E-1,-5.489654541E-1,9.663101196E0
5.195438037E1,3.048248291E-1,-2.161865234E-1,9.452423096E0
5.205460009E1,1.276550293E-1,-3.646240234E-1,9.543395996E0
5.215478930E1,1.420288086E-1,-1.898498535E-1,9.670288086E0
5.225500903E1,5.583190918E-2,-2.760314941E-1,9.378204346E0
5.235519824E1,1.372375488E-1,-6.495361328E-1,9.655929565E0
5.245541796E1,4.624938965E-2,-1.180114746E-1,9.739715576E0
5.255560717E1,3.311614990E-1,-6.112213135E-1,9.605651855E0
5.265582690E1,2.401885986E-1,-5.274200439E-1,9.677474976E0
5.275604663E1,3.910217285E-1,-4.555969238E-1,9.541000366E0
5.285623584E1,1.755371094E-1,-6.533813477E-2,9.457199097E0
5.295645556E1,2.234191895E-1,-2.808227539E-1,9.715774536E0
5.305667529E1,-9.500122070E-2,-3.765869141E-1,9.675079346E0
5.315686450E1,1.946868896E-1,-4.029235840E-1,9.493118286E0
5.325705371E1,3.239746094E-1,-3.909606934E-1,9.620010376E0
5.335727343E1,3.120117188E-1,-3.167419434E-1,9.574523926E0
5.345743064E1,1.563873291E-1,-2.592773438E-1,9.734939575E0
5.355765037E1,1.252593994E-1,-8.927917480E-2,9.452423096E0
5.365787009E1,7.019042969E-2,-5.393981934E-1,9.792388916E0
5.375805930E1,2.497558594E-1,-4.579925537E-1,9.521850586E0
5.385827903E1,-7.345581055E-2,-4.819335938E-1,9.964782715E0
5.395849876E1,2.928619385E-1,-3.574371338E-1,9.507476807E0
5.405868797E1,-6.866455078E-2,-4.388427734E-1,9.603256226E0
5.415887717E1,2.306060791E-1,-4.029235840E-1,9.560150146E0
5.425909690E1,3.742523193E-1,-3.095550537E-1,9.651138306E0
5.435931663E1,3.668212891E-2,-4.651794434E-1,9.617614746E0
5.445950584E1,2.066650391E-1,-1.994171143E-1,9.658325195E0
5.455972556E1,1.779327393E-1,-3.215179443E-1,9.751693726E0
5.465994529E1,2.545471191E-1,-5.920715332E-1,9.708602905E0
5.476013450E1,6.328277588E-1,-3.789825439E-1,9.552978516E0
5.486035422E1,2.784881592E-1,-2.137908936E-1,9.725357056E0
5.496054343E1,-6.626892090E-2,-3.454589844E-1,9.866607666E0
5.506076316E1,1.300506592E-1,-4.436340332E-1,9.622406006E0
5.516098289E1,9.173583984E-2,-4.077148438E-1,9.706207275E0
5.526117210E1,1.991271973E-2,-2.520904541E-1,9.600860596E0
5.536136130E1,3.335571289E-1,-2.449035645E-1,9.545791626E0
5.546158103E1,5.538177490E-1,-1.587219238E-1,9.641555786E0
5.556180076E1,5.681915283E-1,-4.819335938E-1,9.938446045E0
5.566198997E1,2.832794189E-1,-2.832183838E-1,9.749298096E0
5.576220969E1,1.059005737E0,-4.268646240E-1,9.624801636E0
5.586242942E1,3.359527588E-1,-1.802673340E-1,9.545791626E0
5.596261863E1,-7.106018066E-2,-4.460296631E-1,9.615219116E0
5.606283836E1,2.497558594E-1,-1.658935547E-1,9.356643677E0
5.616302756E1,5.011444092E-1,-2.928009033E-1,9.500305176E0
5.626324729E1,9.173583984E-2,-3.334960938E-1,9.859436035E0
5.636343650E1,2.425842285E-1,-4.843292236E-1,9.967163086E0
5.646365623E1,3.359527588E-1,-5.010833740E-1,9.768447876E0
5.656387595E1,2.470397949E-2,-1.108398438E-1,9.629592896E0
5.666406516E1,-1.599121094E-2,8.880615234E-3,9.438049316E0
5.676428489E1,8.695983887E-2,-5.097961426E-2,9.557754517E0
5.686447410E1,-2.147216797E-1,-4.627838135E-1,9.569732666E0
5.696469382E1,1.372375488E-1,-5.346069336E-1,9.629592896E0
5.706491355E1,-8.782958984E-2,-6.351623535E-1,9.967163086E0
5.716510276E1,-2.602081299E-1,-4.077148438E-1,9.907318115E0
5.726529197E1,1.563873291E-1,-3.900146484E-2,9.840270996E0
5.736551170E1,-1.121520996E-2,-2.449035645E-1,9.660705566E0
5.746570090E1,2.497558594E-1,-3.741912842E-1,9.536209106E0
5.756592063E1,-6.866455078E-2,-3.047637939E-1,9.701416016E0
5.766610984E1,3.428649902E-2,-2.640686035E-1,9.744506836E0
5.776632957E1,6.062316895E-2,-3.741912842E-1,9.478759766E0
5.786654929E1,1.324462891E-1,-3.095550537E-1,9.593673706E0
5.796676902E1,-7.824707031E-2,-1.491394043E-1,9.715774536E0
5.806698875E1,4.149627686E-1,-3.167419434E-1,9.524246216E0
5.816717796E1,-1.261291504E-1,-2.736358643E-1,9.701416016E0
5.826736716E1,1.563873291E-1,-2.425079346E-1,9.541000366E0
5.836758689E1,3.862304688E-1,-3.526458740E-1,9.734939575E0
5.846777610E1,-7.824707031E-2,-2.951812744E-1,9.677474976E0
5.856799583E1,3.428649902E-2,-3.263092041E-1,9.648742676E0
5.866818504E1,-1.359558105E-2,-3.143463135E-1,9.457199097E0
5.876840476E1,2.306060791E-1,-2.928009033E-1,9.596069336E0
5.886862449E1,7.258605957E-2,-2.520904541E-1,9.837890625E0
5.896884422E1,-1.811981201E-1,-3.215179443E-1,9.387771606E0
5.906906394E1,3.189086914E-2,-4.771423340E-1,9.466781616E0
5.916925315E1,2.162475586E-1,-3.694152832E-1,9.912109375E0
5.926944236E1,1.061096191E-1,-3.406829834E-1,9.552978516E0
5.936963157E1,9.892272949E-2,-4.436340332E-1,9.710998535E0
5.946985130E1,2.401885986E-1,-2.401275635E-1,9.651138306E0
5.957007102E1,9.413146973E-2,-4.053192139E-1,9.950408936E0
5.967026023E1,7.949829102E-3,-2.496948242E-1,9.687042236E0
5.977047996E1,4.939727783E-1,-3.023681641E-1,9.608047485E0
5.987066917E1,3.981933594E-1,-1.850585938E-1,9.605651855E0
5.997088889E1,5.179138184E-1,-2.808227539E-1,9.797180176E0
6.007110862E1,6.112823486E-1,-4.891204834E-1,9.770843506E0
6.017129783E1,5.322723389E-1,-4.508056641E-1,9.586486816E0
6.027151756E1,5.514221191E-1,-4.699707031E-1,9.356643677E0
6.037170676E1,6.783294678E-1,-2.736358643E-1,9.620010376E0
6.047192649E1,4.987640381E-1,-3.717956543E-1,9.603256226E0
6.057211570E1,1.123641968E0,-3.478546143E-1,9.691833496E0
6.067233543E1,1.025482178E0,-6.423492432E-1,9.907318115E0
6.077252464E1,7.070465088E-1,-3.981323242E-1,9.696624756E0
6.087274436E1,9.297180176E-1,-4.029235840E-1,9.744506836E0
6.097293357E1,8.937988281E-1,-3.143463135E-1,9.665496826E0
6.107318381E1,8.195800781E-1,-4.388427734E-1,9.801971436E0
6.117337302E1,8.602752686E-1,-3.933563232E-1,9.701416016E0
6.127356223E1,7.190246582E-1,-3.933563232E-1,9.732543945E0
6.137378196E1,7.980346680E-1,-3.502502441E-1,9.627197266E0
6.147397117E1,6.112823486E-1,-3.526458740E-1,9.624801636E0
6.157419090E1,6.807098389E-1,-2.089996338E-1,9.461990356E0
6.167438010E1,6.088867188E-1,-3.382873535E-1,9.646347046E0
6.177459983E1,6.304321289E-1,-3.430786133E-1,9.773239136E0
6.187481956E1,8.052215576E-1,-3.287048340E-1,9.634368896E0
6.197500877E1,7.860565186E-1,-1.108398438E-1,9.325531006E0
6.207525901E1,9.799957275E-1,-3.311004639E-1,9.531433105E0
6.217541770E1,1.217010498E0,-3.430786133E-1,9.639160156E0
6.227563743E1,1.147583008E0,-3.622283936E-1,9.454818726E0
6.237582664E1,1.006332397E0,-4.029235840E-1,9.596069336E0
6.247604636E1,1.068572998E0,-5.417938232E-1,9.892944336E0
6.257626609E1,1.102096558E0,-4.244689941E-1,9.809158325E0
6.267645530E1,1.126037598E0,-4.843292236E-1,1.001745605E1
6.277667502E1,1.097305298E0,-4.005279541E-1,9.794784546E0
6.287686423E1,9.081726074E-1,-1.826629639E-1,9.543395996E0
6.297708396E1,6.160736084E-1,-3.957366943E-1,9.763656616E0
6.307730369E1,4.532623291E-1,-1.994171143E-1,9.380584717E0
6.317749290E1,7.429656982E-1,-3.574371338E-1,9.306365967E0
6.327768211E1,7.262115479E-1,-3.741912842E-1,9.610427856E0
6.337790183E1,1.075759888E0,-3.239135742E-1,9.454818726E0
6.347813850E1,1.152374268E0,-3.287048340E-1,9.495513916E0
6.357832770E1,9.847869873E-1,-4.627838135E-1,9.842666626E0
6.367854743E1,1.044631958E0,-4.771423340E-1,9.864227295E0
6.377873664E1,1.176315308E0,-5.154571533E-1,9.976745605E0
6.387895637E1,7.812805176E-1,-4.364471436E-1,9.864227295E0
6.397914558E1,5.490417480E-1,-3.933563232E-1,9.775634766E0
6.407939582E1,5.131225586E-1,-3.885650635E-1,1.007969666E1
6.417958503E1,5.227050781E-1,-5.872802734E-1,9.488327026E0
6.427977424E1,7.477569580E-1,-2.496948242E-1,9.627197266E0
6.437999396E1,1.180725098E-1,-3.957366943E-1,9.672683716E0
6.448024421E1,1.994781494E-1,-2.760314941E-1,9.842666626E0
6.458040290E1,5.993194580E-1,-5.154571533E-1,9.622406006E0
6.468062262E1,8.243713379E-1,-4.723510742E-1,9.732543945E0
6.478081183E1,5.777587891E-1,-3.717956543E-1,9.677474976E0
6.488103156E1,9.177398682E-1,-4.795379639E-1,9.562545776E0
6.498125129E1,1.068572998E0,-4.220733643E-1,9.440444946E0
6.508147101E1,1.509109497E0,-3.789825439E-1,9.744506836E0
6.518162971E1,2.134002686E0,-4.412384033E-1,9.608047485E0
6.528184943E1,2.512283325E0,-3.191223145E-1,9.572128296E0
6.538206916E1,3.031829834E0,-3.406829834E-1,9.744506836E0
6.548225837E1,2.950424194E0,-6.088256836E-1,9.411712646E0
6.558247809E1,2.768463135E0,-8.434600830E-1,9.663101196E0
6.568266730E1,2.900146484E0,-7.644500732E-1,9.732543945E0
6.578288703E1,2.883377075E0,-3.694152832E-1,9.552978516E0
6.588307624E1,2.763671875E0,-5.776977539E-1,9.564941406E0
6.598329597E1,2.833099365E0,-5.202484131E-1,9.552978516E0
6.608351569E1,2.447631836E0,-6.567077637E-1,9.818725586E0
6.618370490E1,2.890563965E0,-6.423492432E-1,9.699020386E0
6.628392463E1,2.256103516E0,-5.274200439E-1,9.737319946E0
6.638411384E1,1.765289307E0,-3.406829834E-1,9.679870605E0
6.648433356E1,1.480377197E0,-3.311004639E-1,9.713378906E0
6.658452277E1,1.331939697E0,-2.018127441E-1,9.928863525E0
6.668474250E1,1.358276367E0,-4.555969238E-1,9.746902466E0
6.678496222E1,1.097305298E0,-2.688446045E-1,9.631988525E0
6.688515143E1,1.276870728E0,-4.771423340E-1,9.754089355E0
6.698537116E1,9.201354980E-1,-3.670196533E-1,9.466781616E0
6.708559089E1,8.267669678E-1,-4.101104736E-1,9.720565796E0
6.718578010E1,6.783294678E-1,-3.263092041E-1,9.641555786E0
6.728596931E1,5.155181885E-1,-5.178527832E-1,9.718170166E0
6.738618903E1,8.937988281E-1,-4.819335938E-1,9.564941406E0
6.748637824E1,8.483123779E-1,-6.136169434E-1,9.636764526E0
6.758659797E1,3.072204590E-1,-3.263092041E-1,9.615219116E0
6.768681769E1,1.554595947E0,-5.370025635E-1,9.933654785E0
6.778700690E1,1.030273438E0,-6.303710938E-1,9.634368896E0
6.788722663E1,1.367858887E0,-4.172973633E-1,9.761276245E0
6.798741584E1,1.686279297E0,-2.137908936E-1,9.557754517E0
6.808763556E1,2.344680786E0,-7.405090332E-1,9.572128296E0
6.818785529E1,2.512283325E0,-5.202484131E-1,9.840270996E0
6.828804450E1,2.801986694E0,-7.141723633E-1,9.457199097E0
6.838826423E1,2.560165405E0,-3.047637939E-1,9.181869507E0
6.848845344E1,2.617630005E0,-4.220733643E-1,9.902526855E0
6.858867316E1,2.533828735E0,-6.974182129E-1,9.473968506E0
6.868886237E1,2.301589966E0,-5.729217529E-1,9.962387085E0
6.878908210E1,2.624801636E0,-2.209625244E-1,9.730148315E0
6.888930182E1,2.505096436E0,-1.467437744E-1,9.713378906E0
6.898949103E1,2.126815796E0,-3.526458740E-1,9.349472046E0
6.908971076E1,1.501922607E0,-5.178527832E-1,9.766052246E0
6.918993049E1,1.535446167E0,-3.861694336E-1,9.610427856E0
6.929011970E1,1.339126587E0,-4.005279541E-1,9.564941406E0
6.939033942E1,1.363067627E0,-3.813781738E-1,9.677474976E0
6.949052863E1,1.202651978E0,-1.251983643E-1,9.452423096E0
6.959071784E1,1.023086548E0,-4.819335938E-1,9.667892456E0
6.969093757E1,1.035064697E0,-8.937377930E-1,9.948013306E0
6.979115729E1,1.233779907E0,-3.526458740E-1,9.699020386E0
6.989134650E1,1.068572998E0,-1.611175537E-1,9.617614746E0
6.999156623E1,8.004302979E-1,-4.771423340E-1,9.631988525E0
7.009178596E1,1.135620117E0,-6.136169434E-1,9.598464966E0
7.019197516E1,1.384613037E0,-1.658935547E-1,9.517059326E0
7.029216437E1,9.871673584E-1,-4.244689941E-1,9.845062256E0
7.039238410E1,1.166732788E0,-3.598327637E-1,9.555374146E0
7.049260383E1,1.573760986E0,-2.066040039E-1,9.710998535E0
7.059279304E1,1.133224487E0,-2.784271240E-1,9.722961426E0
7.069301276E1,1.228988647E0,-5.298156738E-1,9.648742676E0
7.079320197E1,1.169128418E0,-7.731628418E-2,9.919281006E0
7.089342170E1,1.379821777E0,-5.465850830E-1,9.483535767E0
7.099364142E1,1.420532227E0,-1.156158447E-1,9.655929565E0
7.109383063E1,1.552200317E0,-5.082702637E-1,9.545791626E0
7.119405036E1,1.473190308E0,-1.180114746E-1,9.545791626E0
7.129423957E1,1.619247437E0,-1.778717041E-1,9.507476807E0
7.139445930E1,1.482772827E0,-3.526458740E-1,9.677474976E0
7.149467902E1,1.523468018E0,-1.204071045E-1,9.912109375E0
7.159486823E1,1.418136597E0,-2.544860840E-1,9.569732666E0
7.169508796E1,1.626419067E0,-2.496948242E-1,9.612823486E0
7.179527717E1,2.086120605E0,-1.491394043E-1,9.461990356E0
7.189549689E1,1.851486206E0,-4.005279541E-1,9.526641846E0
7.199568610E1,1.298416138E0,-5.274200439E-1,9.110046387E0
7.209590583E1,7.118377686E-1,-6.710815430E-1,9.720565796E0
7.219612556E1,1.731414795E-1,-7.045898438E-1,9.787612915E0
7.229631476E1,3.359527588E-1,-3.334960938E-1,9.378204346E0
7.239650397E1,-6.626892090E-2,-6.184082031E-1,9.584091187E0
7.249672370E1,3.670806885E-1,-2.664642334E-1,9.713378906E0
7.259694343E1,6.232604980E-1,-5.657348633E-1,9.722961426E0
7.269713264E1,8.315582275E-1,-4.532012939E-1,9.622406006E0
7.279735236E1,1.200256348E0,-4.316558838E-1,9.421295166E0
7.289754157E1,1.197860718E0,-1.754760742E-1,9.426086426E0
7.299776130E1,1.331939697E0,-4.723510742E-1,9.598464966E0
7.309795051E1,1.612060547E0,-1.251983643E-1,9.756484985E0
7.319820075E1,1.650375366E0,-5.178527832E-1,9.809158325E0
7.329838996E1,1.748535156E0,-4.963073730E-1,9.512268066E0
7.339857917E1,1.829940796E0,-5.944671631E-1,9.857040405E0
7.349877236E1,1.528259277E0,-1.108398438E-1,9.335098267E0
7.359896157E1,2.177093506E0,-2.496948242E-1,9.452423096E0
7.369918129E1,1.791625977E0,-3.478546143E-1,9.517059326E0
7.379937050E1,1.535446167E0,-4.053192139E-1,9.701416016E0
7.389959023E1,1.343917847E0,-5.944671631E-1,9.600860596E0
7.399980995E1,1.236175537E0,-4.771423340E-1,9.758880615E0
7.409999916E1,7.980346680E-1,-3.311004639E-1,9.725357056E0
7.420024941E1,1.018295288E0,-5.106658936E-1,9.450027466E0
7.430040810E1,5.801544189E-1,-5.082702637E-1,9.821121216E0
7.440062782E1,1.094909668E0,-7.309265137E-1,9.921676636E0
7.450081703E1,9.129486084E-1,-2.568817139E-1,9.694229126E0
7.460103676E1,5.681915283E-1,-6.591033936E-1,9.576919556E0
7.470125649E1,6.974792480E-1,-3.909606934E-1,9.861831665E0
7.480144570E1,4.173583984E-1,-3.454589844E-1,9.797180176E0
7.490166542E1,4.173583984E-1,-4.963073730E-1,9.847457886E0
7.500185463E1,5.753784180E-1,-7.012939453E-2,9.624801636E0
7.510207436E1,1.082946777E0,-4.172973633E-1,9.593673706E0
7.520229408E1,9.413146973E-2,-8.210754395E-2,9.363830566E0
7.530248329E1,8.770446777E-1,-6.902313232E-1,1.006533813E1
7.540270302E1,8.363342285E-1,-2.224731445E-2,9.596069336E0
7.550289223E1,1.317581177E0,-1.419525146E-1,9.404525757E0
7.560308144E1,1.805984497E0,-4.316558838E-1,9.727752686E0
7.570330116E1,2.145965576E0,-1.371765137E-1,8.463607788E0
7.580352089E1,1.956832886E0,1.844787598E-2,1.104216003E1
7.590371010E1,2.581710815E0,-5.337524414E-2,8.868225098E0
7.600392983E1,1.964004517E0,-1.353424072E0,1.035263062E1
7.610414955E1,7.357788086E-1,1.980133057E-1,9.608047485E0
7.620433876E1,1.123641968E0,-7.524871826E-1,9.617614746E0
7.630455849E1,1.449249268E0,2.563476562E-2,9.962387085E0
7.640474770E1,1.877822876E0,-9.167480469E-2,9.914505005E0
7.650496742E1,1.624038696E0,-1.299896240E-1,9.715774536E0
7.660515663E1,1.707824707E0,1.429443359E-1,9.239334106E0
7.670537636E1,1.449249268E0,3.320922852E-1,9.349472046E0
7.680556557E1,1.499526978E0,2.099914551E-1,9.658325195E0
7.690578530E1,1.906555176E0,-1.985168457E-2,1.004139709E1
7.700597450E1,1.430099487E0,-1.467437744E-1,9.840270996E0
7.710619423E1,1.844299316E0,2.028045654E-1,9.560150146E0
7.720641396E1,1.774871826E0,2.563476562E-2,9.665496826E0
7.730660317E1,1.485168457E0,-6.303710938E-1,1.002702332E1
7.740682289E1,1.987945557E0,1.716766357E-1,9.287216187E0
7.750701210E1,1.908935547E0,-2.472991943E-1,9.976745605E0
7.760723183E1,1.873031616E0,-5.202484131E-1,9.823516846E0
7.770742104E1,1.808380127E0,-5.753021240E-1,9.756484985E0
7.780764076E1,1.573760986E0,-1.515350342E-1,9.179473877E0
7.790782997E1,1.669525146E0,-8.147277832E-1,9.708602905E0
7.800804970E1,1.693466187E0,-4.771423340E-1,9.500305176E0
7.810826943E1,1.913726807E0,-3.765869141E-1,9.342285156E0
7.820845864E1,1.748535156E0,-8.769836426E-1,9.794784546E0
7.830867836E1,1.418136597E0,-7.835998535E-1,9.778030396E0
7.840889809E1,1.616851807E0,-7.883911133E-1,9.701416016E0
7.850908730E1,2.035827637E0,-2.832183838E-1,9.715774536E0
7.860930702E1,2.157943726E0,-4.340515137E-1,9.852249146E0
7.870949623E1,2.126815796E0,-5.920715332E-1,1.000787354E1
7.880971596E1,1.858657837E0,-7.476959229E-1,9.967163086E0
7.890990517E1,1.762893677E0,-8.937377930E-1,1.002702332E1
7.901012490E1,1.681488037E0,-9.679565430E-1,9.464385986E0
7.911034462E1,1.506713867E0,-7.620544434E-1,9.227355957E0
7.921056435E1,2.016677856E0,-7.764282227E-1,9.133987427E0
7.931075356E1,1.691070557E0,-4.268646240E-1,9.880981445E0
7.941094277E1,1.401367188E0,-1.152313232E0,9.641555786E0
7.951116249E1,1.937667847E0,-1.056549072E0,9.761276245E0
7.961135170E1,1.683883667E0,-1.360610962E0,1.000547791E1
7.971157143E1,1.803604126E0,-1.360610962E0,9.466781616E0
7.981176064E1,1.710220337E0,-7.022094727E-1,9.756484985E0
7.991198036E1,1.631210327E0,-8.099365234E-1,9.102859497E0
8.001216957E1,1.719802856E0,-7.381134033E-1,9.675079346E0
8.011238930E1,1.707824707E0,-8.626098633E-1,9.778030396E0
8.021260903E1,1.482772827E0,-9.679565430E-1,9.708602905E0
8.031279824E1,1.458831787E0,-5.681304932E-1,9.631988525E0
8.041301796E1,1.765289307E0,-7.644500732E-1,9.332702637E0
8.051320717E1,1.671920776E0,-9.966888428E-1,9.335098267E0
8.061342690E1,1.518692017E0,-1.116394043E0,9.998291016E0
8.071361611E1,1.398971558E0,-9.559936523E-1,9.507476807E0
8.081383583E1,1.379821777E0,-9.152832031E-1,9.653533936E0
8.091405556E1,1.039840698E0,-1.063720703E0,9.651138306E0
8.101424477E1,1.118850708E0,-8.578186035E-1,9.277633667E0
8.111446450E1,8.602752686E-1,-9.607696533E-1,9.684661865E0
8.121468422E1,9.345092773E-1,-8.530426025E-1,9.823516846E0
8.131487343E1,8.626708984E-1,-6.351623535E-1,9.770843506E0
8.141506264E1,1.243347168E0,-9.057159424E-1,9.615219116E0
8.151528237E1,1.365463257E0,-6.471405029E-1,9.086105347E0
8.161550209E1,1.477981567E0,-7.022094727E-1,9.284820557E0
8.171572182E1,1.504318237E0,-6.710815430E-1,9.083709717E0
8.181588051E1,1.865844727E0,-6.758728027E-1,9.337493896E0
8.191610024E1,1.109283447E0,-5.537567139E-1,1.044841003E1
8.201631996E1,1.331939697E0,-7.572631836E-1,9.938446045E0
8.211653969E1,1.521087646E0,-7.237548828E-1,9.634368896E0
8.221672890E1,2.181884766E0,-1.465957642E0,9.658325195E0
8.231694863E1,1.669525146E0,6.155395508E-2,9.100463867E0
8.241713783E1,9.704132080E-1,-1.386947632E0,9.677474976E0
8.251735756E1,7.836608887E-1,-5.346069336E-1,9.919281006E0
8.261754677E1,1.487564087E0,-1.018234253E0,1.062318420E1
8.271776650E1,1.015899658E0,-9.248657227E-1,1.055375671E1
8.281795571E1,1.832321167E0,-8.506469727E-1,1.041249084E1
8.291817543E1,1.949645996E0,-1.036529541E-1,9.313552856E0
8.301836464E1,1.777267456E0,-6.040344238E-1,9.426086426E0
8.311858437E1,1.468414307E0,-5.633392334E-1,1.026884460E1
8.321880409E1,2.651138306E0,-7.788238525E-1,1.011322021E1
8.331899330E1,2.069351196E0,-5.681304932E-1,9.143569946E0
8.341922491E1,2.052597046E0,-1.343841553E0,1.053698730E1
8.351941412E1,1.743743896E0,-7.740325928E-1,8.726974487E0
8.361963385E1,2.653533936E0,-1.226531982E0,9.837890625E0
8.371982305E1,2.174697876E0,-1.353424072E0,9.414108276E0
8.382004278E1,2.385391235E0,-9.799346924E-1,9.289611816E0
8.392026251E1,2.177093506E0,-8.578186035E-1,9.179473877E0
8.402045172E1,1.743743896E0,-6.758728027E-1,9.174682617E0
8.412067144E1,1.853881836E0,-8.410644531E-1,8.906539917E0
8.422086065E1,2.090896606E0,-1.137939453E0,1.063754272E1
8.432108038E1,1.762893677E0,-8.554382324E-1,9.500305176E0
8.442126959E1,2.538619995E0,-8.314819336E-1,9.842666626E0
8.452148931E1,2.248916626E0,-1.027816772E0,1.036221313E1
8.462167852E1,2.124420166E0,-7.476959229E-1,1.001506042E1
8.472189825E1,1.873031616E0,-1.044570923E0,9.560150146E0
8.482208746E1,2.153152466E0,-7.189636230E-1,9.445236206E0
8.492230719E1,2.251312256E0,-4.172973633E-1,9.236938477E0
8.502252691E1,2.256103516E0,-4.579925537E-1,9.991119385E0
8.512271612E1,2.186676025E0,-8.530426025E-1,9.866607666E0
8.522296636E1,2.129211426E0,-4.747467041E-1,9.236938477E0
8.532312506E1,2.236953735E0,-4.412384033E-1,9.265670776E0
8.542334478E1,2.064559937E0,-6.782531738E-1,1.020658875E1
8.552353399E1,2.038223267E0,-6.231994629E-1,1.001745605E1
8.562375372E1,1.595306396E0,-9.727478027E-1,1.037179565E1
8.572397344E1,2.196243286E0,-9.535980225E-1,9.897735596E0
8.582416265E1,2.064559937E0,-5.346069336E-1,9.287216187E0
8.592438238E1,1.418136597E0,-6.758728027E-1,9.160324097E0
8.602457159E1,1.932876587E0,-3.263092041E-1,9.019073486E0
8.612479132E1,1.822753906E0,-1.706848145E-1,8.566558838E0
8.622501104E1,1.439682007E0,-4.675750732E-1,1.001745605E1
8.632520025E1,1.377426147E0,-7.883911133E-1,9.823516846E0
8.642538946E1,5.825500488E-1,-5.609436035E-1,9.952804565E0
8.652560919E1,7.118377686E-1,-8.961334229E-1,1.002702332E1
8.662582891E1,7.525482178E-1,-4.723510742E-1,9.457199097E0
8.672601812E1,6.711425781E-1,-3.813781738E-1,9.227355957E0
8.682623785E1,-4.709014893E-1,-3.191223145E-1,9.768447876E0
8.692642706E1,-9.066467285E-1,-6.184082031E-1,1.028320312E1
8.702664679E1,-4.951477051E-2,-8.099365234E-1,1.002223206E1
8.712686651E1,-3.918914795E-1,-8.027648926E-1,9.914505005E0
8.722705572E1,-2.314758301E-1,-4.340515137E-1,9.509872437E0
8.732727545E1,-4.445648193E-1,-2.592773438E-1,9.385375977E0
8.742746466E1,-6.241302490E-1,-3.406829834E-1,9.950408936E0
8.752768438E1,-2.027435303E-1,-3.574371338E-1,9.840270996E0
8.762787359E1,-7.414398193E-1,-4.460296631E-1,9.897735596E0
8.772809332E1,-4.493408203E-1,-5.393981934E-1,9.938446045E0
8.782828253E1,-7.701721191E-1,-4.867248535E-1,9.720565796E0
8.792850225E1,-5.906066895E-1,-3.981323242E-1,9.433258057E0
8.802872198E1,-1.189422607E-1,-3.143463135E-1,9.548187256E0
8.812891119E1,1.061096191E-1,-3.358917236E-1,9.418899536E0
8.822913092E1,-4.711914062E-2,-3.646240234E-1,9.189056396E0
8.832932013E1,-1.141510010E-1,-3.622283936E-1,1.007250977E1
8.842953985E1,-9.260559082E-2,-5.537567139E-1,9.512268066E0
8.852975958E1,3.189086914E-2,-5.585479736E-1,9.959991455E0
8.862994879E1,-2.317810059E-2,-6.375579834E-1,9.933654785E0
8.873016851E1,2.497558594E-1,-4.220733643E-1,9.885772705E0
8.883035772E1,7.949829102E-3,-3.167419434E-1,9.356643677E0
8.893057745E1,3.790435791E-1,-3.646240234E-1,9.576919556E0
8.903076666E1,3.574981689E-1,-6.686859131E-1,9.605651855E0
8.913098638E1,7.286071777E-1,-5.896759033E-1,9.634368896E0
8.923120611E1,6.519927979E-1,-6.279754639E-1,9.593673706E0
8.933139532E1,8.195800781E-1,-3.143463135E-1,9.349472046E0
8.943158453E1,9.847869873E-1,-4.627838135E-1,9.107650757E0
8.953180426E1,9.991455078E-1,-7.572631836E-1,9.562545776E0
8.963202398E1,9.368896484E-1,-8.386688232E-1,9.428482056E0
8.973221319E1,9.009857178E-1,-8.027648926E-1,9.734939575E0
8.983243292E1,8.937988281E-1,-8.219146729E-1,9.751693726E0
8.993262213E1,8.746490479E-1,-7.524871826E-1,9.708602905E0
9.003284185E1,1.030273438E0,-5.537567139E-1,9.624801636E0
9.013303106E1,1.035064697E0,-3.741912842E-1,9.593673706E0
9.023328131E1,1.142791748E0,-3.215179443E-1,9.461990356E0
9.033347052E1,1.281661987E0,-9.152832031E-1,9.801971436E0
9.043365972E1,9.129486084E-1,-8.195190430E-1,9.744506836E0
9.053387945E1,4.604492188E-1,-6.375579834E-1,9.739715576E0
9.063406866E1,-2.194976807E-1,-5.178527832E-1,9.016677856E0
9.073428839E1,-1.907653809E-1,-6.710815430E-1,9.241729736E0
9.083450811E1,-1.838684082E-2,-5.226440430E-1,9.337493896E0
9.093472784E1,-8.819580078E-3,-6.543121338E-1,9.600860596E0
9.103491705E1,1.109008789E-1,-3.598327637E-1,9.629592896E0
9.113510626E1,4.867858887E-1,-5.489654541E-1,9.756484985E0
9.123532598E1,4.341125488E-1,-7.117767334E-1,1.049868774E1
9.133551519E1,3.981933594E-1,-4.699707031E-1,1.013476562E1
9.143573492E1,5.514221191E-1,-4.484100342E-1,9.430862427E0
9.153592413E1,7.980346680E-1,-2.832183838E-1,8.597686768E0
9.163614386E1,6.160736084E-1,-4.603881836E-1,9.390167236E0
9.173636358E1,5.179138184E-1,-2.472991943E-1,9.356643677E0
9.183655279E1,6.256561279E-1,-5.010833740E-1,9.789993286E0
9.193677252E1,2.880706787E-1,-6.016387939E-1,9.883377075E0
9.203696173E1,1.180725098E-1,-3.311004639E-1,9.186660767E0
9.213718145E1,3.431396484E-1,-4.867248535E-1,9.936050415E0
9.223737066E1,4.484863281E-1,-3.311004639E-1,9.169906616E0
9.233759039E1,1.803283691E-1,-5.106658936E-1,9.766052246E0
9.243777960E1,2.904663086E-1,-7.141723633E-1,9.782821655E0
9.253799932E1,4.987640381E-1,-6.040344238E-1,9.864227295E0
9.263821905E1,1.032669067E0,-8.506469727E-1,9.897735596E0
9.273840826E1,9.321136475E-1,-3.526458740E-1,9.057373047E0
9.283862799E1,8.123931885E-1,-5.896759033E-1,9.272857666E0
9.293881720E1,7.573242188E-1,-8.195190430E-1,9.971954346E0
9.303903692E1,6.328277588E-1,-5.513610840E-1,9.840270996E0
9.313928717E1,1.109283447E0,-7.141723633E-1,9.770843506E0
9.323944586E1,8.722534180E-1,-7.764282227E-1,9.811553955E0
9.333966558E1,1.140396118E0,-4.986877441E-1,9.359039307E0
9.343984436E1,1.135620117E0,-6.567077637E-1,9.780426025E0
9.354006409E1,1.214630127E0,-3.765869141E-1,9.148345947E0
9.364025330E1,1.140396118E0,-9.895019531E-1,9.801971436E0
9.374047303E1,1.420532227E0,-4.460296631E-1,9.349472046E0
9.384066224E1,1.310394287E0,-6.591033936E-1,9.708602905E0
9.394088196E1,1.415740967E0,-6.016387939E-1,9.054977417E0
9.404107117E1,1.240966797E0,-5.178527832E-1,9.342285156E0
9.414129090E1,1.063781738E0,-8.147277832E-1,1.004856873E1
9.424151062E1,1.602478027E0,-7.165679932E-1,9.332702637E0
9.434169983E1,1.669525146E0,-7.333221436E-1,9.507476807E0
9.444191956E1,1.190689087E0,-9.918975830E-1,9.979141235E0
9.454210877E1,1.901763916E0,-5.034790039E-1,9.509872437E0
9.464232850E1,1.631210327E0,-6.950225830E-1,9.536209106E0
9.474254822E1,1.279266357E0,-1.109222412E0,9.919281006E0
9.484273743E1,1.573760986E0,-7.931823730E-1,9.660705566E0
9.494295716E1,1.877822876E0,-5.082702637E-1,9.148345947E0
9.504314637E1,2.181884766E0,-5.657348633E-1,8.949630737E0
9.514336609E1,1.655151367E0,-1.371765137E-1,8.755706787E0
9.524358582E1,1.566574097E0,-7.668457031E-1,9.296798706E0
9.534377503E1,1.126037598E0,-7.955780029E-1,9.576919556E0
9.544399476E1,1.257720947E0,-9.966888428E-1,9.521850586E0
9.554418396E1,1.245742798E0,-7.812042236E-1,9.260879517E0
9.564440369E1,1.238571167E0,-9.966888428E-1,9.782821655E0
9.574459290E1,7.597198486E-1,-6.064300537E-1,9.066955566E0
9.584484314E1,7.094421387E-1,-7.644500732E-1,9.129196167E0
9.594506287E1,4.460906982E-1,-6.208038330E-1,9.574523926E0
9.604522156E1,4.245300293E-1,-6.926269531E-1,1.002941895E1
9.614541077E1,4.412994385E-1,-7.835998535E-1,9.813934326E0
9.624563050E1,9.488677979E-1,-7.572631836E-1,9.684661865E0
9.634585022E1,6.472015381E-1,-7.476959229E-1,9.430862427E0
9.644603943E1,6.232604980E-1,-6.734771729E-1,9.411712646E0
9.654625916E1,5.179138184E-1,-6.136169434E-1,9.387771606E0
9.664644837E1,5.346679688E-1,-5.992584229E-1,9.718170166E0
9.674666810E1,3.790435791E-1,-8.817596436E-1,9.617614746E0
9.684685730E1,6.184692383E-1,-9.631652832E-1,9.983932495E0
9.694707703E1,3.431396484E-1,-8.267059326E-1,9.509872437E0
9.704729676E1,5.466461182E-1,-7.835998535E-1,9.873794556E0
9.714748597E1,7.333831787E-1,-1.027816772E0,9.615219116E0
9.724770569E1,6.902923584E-1,-7.644500732E-1,9.320739746E0
9.734792542E1,8.216857910E-2,-9.080963135E-1,1.005096436E1
9.744811463E1,4.987640381E-1,-9.009246826E-1,9.833099365E0
9.754833436E1,7.836608887E-1,-9.942932129E-1,9.878585815E0
9.764852356E1,7.716979980E-1,-8.937377930E-1,9.552978516E0
9.774874329E1,7.453613281E-1,-8.793792725E-1,9.555374146E0
9.784893250E1,8.219757080E-1,-7.524871826E-1,9.567337036E0
9.794915223E1,7.094421387E-1,-9.104919434E-1,9.634368896E0
9.804934144E1,6.519927979E-1,-9.392242432E-1,9.426086426E0
9.814956116E1,6.831054688E-1,-8.985290527E-1,9.543395996E0
9.824975037E1,7.737731934E-2,-6.710815430E-1,9.873794556E0
9.835000062E1,-2.554168701E-1,-7.979736328E-1,9.548187256E0
9.845015931E1,2.976379395E-1,-8.793792725E-1,9.761276245E0
9.855040955E1,1.228637695E-1,-7.476959229E-1,9.251296997E0
9.865059876E1,1.587829590E-1,-4.963073730E-1,8.949630737E0
9.875078797E1,2.569427490E-1,-8.362731934E-1,9.993499756E0
9.885100770E1,-1.404876709E-1,-9.559936523E-1,9.967163086E0
9.895122742E1,8.695983887E-2,-9.176788330E-1,9.809158325E0
9.905144715E1,4.101715088E-1,-1.037384033E0,9.631988525E0
9.915160584E1,1.539916992E-1,-9.368286133E-1,9.648742676E0
9.925185608E1,4.197540283E-1,-5.944671631E-1,9.076522827E0
9.935204529E1,1.587829590E-1,-8.961334229E-1,9.675079346E0
9.945223450E1,9.413146973E-2,-9.104919434E-1,9.409317017E0
9.955245423E1,1.109008789E-1,-7.931823730E-1,9.517059326E0
9.965267395E1,-1.838684082E-2,-9.080963135E-1,9.588882446E0
9.975286316E1,-3.511810303E-1,-8.626098633E-1,1.002702332E1
9.985308289E1,5.107269287E-1,-9.751434326E-1,9.517059326E0
9.995327210E1,2.832794189E-1,-1.046966553E0,9.550582886E0
1.000534918E2,1.348419189E-1,-9.727478027E-1,9.751693726E0
1.001536810E2,2.641296387E-1,-8.913421631E-1,9.485931396E0
1.002539008E2,2.545471191E-1,-6.710815430E-1,9.572128296E0
1.003541205E2,2.306060791E-1,-9.344329834E-1,9.768447876E0
1.004543097E2,2.856750488E-1,-8.434600830E-1,9.701416016E0
1.005545294E2,1.875152588E-1,-7.644500732E-1,9.837890625E0
1.006547186E2,1.611785889E-1,-8.243103027E-1,9.639160156E0
1.007549384E2,4.556579590E-1,-8.602142334E-1,9.734939575E0
1.008551581E2,1.875152588E-1,-8.171234131E-1,9.598464966E0
1.009553473E2,1.252593994E-1,-6.208038330E-1,9.900131226E0
1.010555670E2,2.736968994E-1,-7.572631836E-1,9.608047485E0
1.011557562E2,8.456420898E-2,-6.950225830E-1,9.586486816E0
1.012559760E2,3.814392090E-1,-8.985290527E-1,9.890548706E0
1.013561957E2,3.048248291E-1,-7.022094727E-1,9.292007446E0
1.014563849E2,2.641296387E-1,-8.745880127E-1,9.524246216E0
1.015566046E2,2.521514893E-1,-9.559936523E-1,9.584091187E0
1.016567938E2,9.413146973E-2,-8.769836426E-1,9.936050415E0
1.017570136E2,8.695983887E-2,-6.710815430E-1,9.670288086E0
1.018572028E2,2.186431885E-1,-6.231994629E-1,9.569732666E0
1.019574225E2,-2.266845703E-1,-1.204986572E0,9.749298096E0
1.020576422E2,3.096160889E-1,-1.152313232E0,9.952804565E0
1.021578314E2,3.168029785E-1,-8.626098633E-1,9.315948486E0
1.022580206E2,3.072204590E-1,-9.703521729E-1,9.244125366E0
1.023582404E2,2.258148193E-1,-1.070907593E0,9.596069336E0
1.024584601E2,4.125671387E-1,-1.080490112E0,9.845062256E0
1.025586493E2,4.939727783E-1,-1.173858643E0,9.842666626E0
1.026588690E2,6.328277588E-1,-9.559936523E-1,9.643951416E0
1.027590582E2,6.878967285E-1,-1.015838623E0,9.512268066E0
1.028592780E2,6.783294678E-1,-9.775390625E-1,9.576919556E0
1.029594672E2,7.118377686E-1,-1.082885742E0,9.639160156E0
1.030597174E2,1.097305298E0,-1.104431152E0,1.000787354E1
1.031599066E2,8.507080078E-1,-1.054153442E0,9.653533936E0
1.032600958E2,6.304321289E-1,-1.054153442E0,1.019940186E1
1.033603156E2,1.135620117E0,-8.554382324E-1,9.251296997E0
1.034606215E2,6.519927979E-1,-8.410644531E-1,9.124404907E0
1.035608107E2,7.621154785E-1,-1.085281372E0,9.785217285E0
1.036610305E2,9.991455078E-1,-1.073303223E0,9.869003296E0
1.037612197E2,1.061401367E0,-9.679565430E-1,9.545791626E0
1.038614394E2,5.729827881E-1,-1.140335083E0,9.809158325E0
1.039616286E2,6.472015381E-1,-7.979736328E-1,8.997512817E0
1.040618483E2,-3.487854004E-1,-1.001480103E0,9.502700806E0
1.041620681E2,3.407440186E-1,-1.118789673E0,9.888168335E0
1.042622573E2,1.061096191E-1,-1.034988403E0,9.957595825E0
1.043624770E2,1.994781494E-1,-1.013442993E0,9.869003296E0
1.044626662E2,-4.421691895E-1,-9.488067627E-1,9.833099365E0
1.045628859E2,-3.942871094E-1,-8.817596436E-1,9.672683716E0
1.046630752E2,-7.222900391E-1,-7.907867432E-1,1.007730103E1
1.047632949E2,-3.176727295E-1,-1.013442993E0,9.514663696E0
1.048634841E2,-5.068054199E-1,-8.937377930E-1,9.720565796E0
1.049637038E2,-4.948425293E-1,-9.942932129E-1,9.423690796E0
1.050639235E2,7.629394531E-4,-1.197799683E0,9.900131226E0
1.051641128E2,-1.047897339E0,-1.104431152E0,9.976745605E0
1.052643325E2,-6.313018799E-1,-1.121185303E0,9.639160156E0
1.053645522E2,-5.403289795E-1,-7.668457031E-1,9.533813477E0
1.054647414E2,-5.427246094E-1,-1.147521973E0,9.529037476E0
1.055649611E2,-7.007446289E-1,-1.020629883E0,9.052581787E0
1.056651503E2,-1.955566406E-1,-1.125976562E0,9.390167236E0
1.057653701E2,-1.213378906E-1,-9.966888428E-1,9.382980347E0
1.058655898E2,-1.285247803E-1,-9.200744629E-1,9.289611816E0
1.059657790E2,-4.325866699E-1,-9.799346924E-1,9.552978516E0
1.060659682E2,2.928619385E-1,-1.183441162E0,9.907318115E0
1.061661879E2,7.019042969E-2,-9.440155029E-1,9.205810547E0
1.062664077E2,1.013183594E-1,-9.176788330E-1,9.718170166E0
1.063666274E2,1.324462891E-1,-1.243286133E0,9.639160156E0
1.064668166E2,1.276550293E-1,-1.097244263E0,9.991119385E0
1.065670363E2,-3.753662109E-2,-1.334274292E0,9.679870605E0
1.066672255E2,-6.387329102E-2,-1.030212402E0,9.622406006E0
1.067674453E2,-1.121520996E-2,-1.018234253E0,9.921676636E0
1.068676345E2,1.420288086E-1,-1.260055542E0,9.976745605E0
1.069678542E2,1.563873291E-1,-1.020629883E0,9.646347046E0
1.070680434E2,1.075759888E0,-1.099639893E0,9.447631836E0
1.071682631E2,1.142791748E0,-1.006271362E0,9.110046387E0
1.072684829E2,6.878967285E-1,-9.152832031E-1,9.529037476E0
1.073686721E2,4.460906982E-1,-7.668457031E-1,9.493118286E0
1.074688918E2,7.597198486E-1,-9.703521729E-1,9.428482056E0
1.075690810E2,1.073364258E0,-1.066116333E0,1.006773376E1
1.076693007E2,9.991455078E-1,-9.871063232E-1,9.359039307E0
1.077695205E2,9.728088379E-1,-1.109222412E0,9.938446045E0
1.078697097E2,1.403762817E0,-1.257659912E0,9.469177246E0
1.079699294E2,1.025482178E0,-1.159500122E0,9.959991455E0
1.080701186E2,1.303207397E0,-8.817596436E-1,9.457199097E0
1.081703383E2,1.190689087E0,-8.410644531E-1,9.373413086E0
1.082705581E2,1.439682007E0,-1.200195312E0,1.003900146E1
1.083707473E2,1.803604126E0,-1.070907593E0,9.521850586E0
1.084709670E2,1.659942627E0,-1.109222412E0,9.524246216E0
1.085711562E2,1.980773926E0,-1.286392212E0,9.529037476E0
1.086713759E2,1.729370117E0,-9.128875732E-1,9.394958496E0
1.087715651E2,1.470809937E0,-1.193008423E0,9.667892456E0
1.088717849E2,1.796417236E0,-1.037384033E0,9.196243286E0
1.089719741E2,1.844299316E0,-1.166671753E0,9.282424927E0
1.090721938E2,1.753326416E0,-9.368286133E-1,9.406921387E0
1.091724135E2,1.607269287E0,-1.470733643E0,9.483535767E0
1.092726027E2,1.920913696E0,-9.440155029E-1,9.335098267E0
1.093728225E2,1.875427246E0,-1.130767822E0,9.327911377E0
1.094730422E2,1.588119507E0,-1.281600952E0,9.536209106E0
1.095732314E2,1.901763916E0,-1.034988403E0,9.818725586E0
1.096734511E2,2.054992676E0,-7.237548828E-1,9.598464966E0
1.097736403E2,2.088500977E0,-7.213592529E-1,9.318344116E0
1.098738601E2,2.193847656E0,-9.033203125E-1,9.543395996E0
1.099740493E2,2.325531006E0,-6.638946533E-1,9.543395996E0
1.100742690E2,2.201034546E0,-6.471405029E-1,9.713378906E0
1.101744582E2,2.050201416E0,-8.434600830E-1,9.840270996E0
1.102746779E2,1.794021606E0,-1.329483032E0,1.009884644E1
1.103748977E2,2.217788696E0,-1.176254272E0,9.260879517E0
1.104750869E2,2.112442017E0,-7.069854736E-1,9.878585815E0
1.105753066E2,1.351089478E0,-1.169067383E0,9.866607666E0
1.106754958E2,1.726989746E0,-1.161895752E0,9.339889526E0
1.107757155E2,1.597702026E0,-6.734771729E-1,9.651138306E0
1.108759353E2,1.707824707E0,-1.090057373E0,9.394958496E0
1.109761245E2,1.240966797E0,-7.740325928E-1,9.564941406E0
1.110763747E2,1.494750977E0,-9.344329834E-1,9.768447876E0
1.111765944E2,1.226593018E0,-1.274414062E0,9.967163086E0
1.112767531E2,1.188293457E0,-1.142730713E0,9.617614746E0
1.113770034E2,1.547424316E0,-1.111618042E0,9.256088257E0
1.114771621E2,1.243347168E0,-8.841552734E-1,9.471572876E0
1.115773818E2,1.109283447E0,-8.865509033E-1,9.813934326E0
1.116776015E2,1.291244507E0,-1.042175293E0,8.760498047E0
1.117777907E2,1.080551147E0,-1.068511963E0,9.076522827E0
1.118780105E2,7.956390381E-1,-7.117767334E-1,9.694229126E0
1.119781997E2,8.578948975E-1,-9.009246826E-1,9.773239136E0
1.120784194E2,1.051818848E0,-9.080963135E-1,9.478759766E0
1.121786086E2,1.133224487E0,-9.751434326E-1,9.588882446E0
1.122788283E2,1.487564087E0,-1.164276123E0,9.742111206E0
1.123790481E2,1.214630127E0,-1.018234253E0,9.538604736E0
1.124792373E2,1.401367188E0,-6.567077637E-1,9.641555786E0
1.125794570E2,1.341522217E0,-8.602142334E-1,9.608047485E0
1.126796462E2,1.097305298E0,-9.033203125E-1,9.885772705E0
1.127798659E2,9.680175781E-1,-1.078094482E0,9.828308105E0
1.128800857E2,1.183502197E0,-6.734771729E-1,9.967163086E0
1.129802749E2,1.351089478E0,-1.070907593E0,9.950408936E0
1.130804946E2,1.497146606E0,-6.638946533E-1,9.466781616E0
1.131806838E2,1.130828857E0,-8.314819336E-1,9.883377075E0
1.132809035E2,1.674316406E0,-9.104919434E-1,9.653533936E0
1.133811232E2,1.233779907E0,-9.176788330E-1,9.394958496E0
1.134812329E2,1.092514038E0,-1.011047363E0,9.718170166E0
1.135814527E2,1.245742798E0,-7.405090332E-1,9.675079346E0
1.136816419E2,1.284057617E0,-8.889465332E-1,9.560150146E0
1.137818616E2,1.248138428E0,-1.034988403E0,9.208206177E0
1.138820508E2,6.950836182E-1,-7.069854736E-1,1.018264771E1
1.139822705E2,5.059356689E-1,-9.392242432E-1,9.593673706E0
1.140824597E2,9.536590576E-1,-1.013442993E0,9.220184326E0
1.141826795E2,3.527069092E-1,-1.087661743E0,9.569732666E0
1.142828992E2,-8.782958984E-2,-9.128875732E-1,9.924072266E0
1.143830884E2,1.827239990E-1,-8.841552734E-1,9.031036377E0
1.144833081E2,7.573242188E-1,-1.092453003E0,9.473968506E0
1.145834973E2,7.214202881E-1,-1.070907593E0,1.004139709E1
1.146837171E2,7.693023682E-1,-8.937377930E-1,9.617614746E0
1.147839368E2,1.149978638E0,-7.524871826E-1,9.347076416E0
1.148841260E2,1.600097656E0,-1.149917603E0,9.744506836E0
1.149843457E2,1.238571167E0,-1.094848633E0,9.543395996E0
1.150845349E2,1.286453247E0,-7.644500732E-1,8.983154297E0
1.151847852E2,1.080551147E0,-1.049362183E0,9.675079346E0
1.152849744E2,1.616851807E0,-1.365402222E0,1.007011414E1
1.153851636E2,1.315185547E0,-1.106826782E0,9.363830566E0
1.154853833E2,1.327148438E0,-7.572631836E-1,9.734939575E0
1.155855725E2,1.817962646E0,-1.420455933E0,9.718170166E0
1.156857923E2,1.535446167E0,-9.416198730E-1,9.081314087E0
1.157860120E2,1.564178467E0,-9.128875732E-1,9.538604736E0
1.158862012E2,1.647979736E0,-1.125976562E0,9.567337036E0
1.159864209E2,1.667129517E0,-8.219146729E-1,9.476364136E0
1.160866101E2,1.425308228E0,-1.288787842E0,1.033827209E1
1.161868299E2,1.865844727E0,-8.626098633E-1,9.488327026E0
1.162870496E2,1.324752808E0,-7.955780029E-1,9.567337036E0
1.163872388E2,1.018295288E0,-1.140335083E0,1.006294250E1
1.164874585E2,1.554595947E0,-7.620544434E-1,9.629592896E0
1.165876477E2,1.552200317E0,-6.088256836E-1,9.409317017E0
1.166878675E2,1.451644897E0,-1.310333252E0,9.730148315E0
1.167880567E2,1.312789917E0,-1.058944702E0,9.885772705E0
1.168882764E2,1.913726807E0,-7.213592529E-1,9.292007446E0
1.169884961E2,1.944854736E0,-5.657348633E-1,9.272857666E0
1.170886853E2,2.303985596E0,-9.559936523E-1,9.488327026E0
1.171889051E2,1.875427246E0,-6.423492432E-1,9.581710815E0
1.172891248E2,1.995132446E0,-6.854400635E-1,9.069351196E0
1.173893140E2,1.583328247E0,-8.003692627E-1,9.244125366E0
1.174895337E2,1.810775757E0,-7.093811035E-1,9.404525757E0
1.175897229E2,1.633605957E0,-5.226440430E-1,9.325531006E0
1.176899427E2,1.784439087E0,-5.800933838E-1,9.416503906E0
1.177901319E2,1.525863647E0,-4.436340332E-1,9.727752686E0
1.178903516E2,1.264907837E0,-7.333221436E-1,1.016110229E1
1.179905408E2,1.164352417E0,-9.990844727E-1,9.715774536E0
1.180907605E2,2.019073486E0,-5.800933838E-1,9.900131226E0
1.181909803E2,1.530654907E0,-6.064300537E-1,9.835494995E0
1.182911695E2,1.523468018E0,-1.204986572E0,9.390167236E0
1.183913892E2,2.059783936E0,-4.077148438E-1,9.500305176E0
1.184916089E2,1.389404297E0,-8.482513428E-1,1.005575562E1
1.185917981E2,1.789230347E0,-5.370025635E-1,9.744506836E0
1.186920179E2,1.463623047E0,-7.453002930E-1,9.744506836E0
1.187922071E2,1.841903687E0,-8.697967529E-1,9.548187256E0
1.188924268E2,1.705429077E0,-6.495361328E-1,9.043014526E0
1.189926160E2,1.923309326E0,-5.202484131E-1,9.050186157E0
1.190928357E2,1.128433228E0,-7.979736328E-1,1.018025208E1
1.191930554E2,1.614456177E0,-1.068511963E0,1.031912231E1
1.192932447E2,1.616851807E0,-7.596588135E-1,9.761276245E0
1.193934644E2,1.614456177E0,-5.441894531E-1,9.052581787E0
1.194936841E2,1.298416138E0,-7.596588135E-1,8.916122437E0
1.195938733E2,1.875427246E0,-5.370025635E-1,9.256088257E0
1.196940930E2,1.643188477E0,-7.165679932E-1,9.519454956E0
1.197942823E2,1.525863647E0,-5.705261230E-1,9.696624756E0
1.198945020E2,1.734161377E0,-7.812042236E-1,9.502700806E0
1.199946912E2,1.434890747E0,-2.472991943E-1,9.428482056E0
1.200949109E2,1.619247437E0,-6.399536133E-1,9.469177246E0
1.201951001E2,1.293624878E0,-4.963073730E-1,9.718170166E0
1.202953199E2,1.506713867E0,-8.841552734E-1,9.998291016E0
1.203955396E2,1.877822876E0,-7.261505127E-1,9.813934326E0
1.204957593E2,1.719802856E0,-4.939117432E-1,9.275253296E0
1.205959485E2,1.391799927E0,-5.202484131E-1,9.371017456E0
1.206961682E2,1.504318237E0,-3.382873535E-1,8.904144287E0
1.207963574E2,1.621643066E0,-5.393981934E-1,9.751693726E0
1.208965772E2,1.425308228E0,-8.147277832E-1,9.988723755E0
1.209967664E2,1.561782837E0,-4.723510742E-1,9.720565796E0
1.210969861E2,1.829940796E0,-2.496948242E-1,9.531433105E0
1.211971753E2,1.030273438E0,-5.010833740E-1,9.715774536E0
1.212973950E2,1.825149536E0,-5.465850830E-1,9.311157227E0
1.213976148E2,1.643188477E0,-4.364471436E-1,9.423690796E0
1.214978345E2,1.533050537E0,-4.101104736E-1,9.397354126E0
1.215980237E2,1.044631958E0,-6.184082031E-1,1.013955688E1
1.216982434E2,1.801208496E0,-7.309265137E-1,9.880981445E0
1.217984326E2,1.037445068E0,-3.382873535E-1,9.677474976E0
1.218986219E2,1.456436157E0,-2.832183838E-1,9.847457886E0
1.219988416E2,1.837112427E0,-4.268646240E-1,9.969558716E0
1.220990613E2,1.224197388E0,-2.472991943E-1,9.787612915E0
1.221992505E2,1.494750977E0,-4.867248535E-1,9.457199097E0
1.222994702E2,1.659942627E0,-2.113952637E-1,9.141174316E0
1.223996595E2,1.894577026E0,-5.561523438E-1,9.816329956E0
1.224998792E2,1.918518066E0,-3.478546143E-1,9.830703735E0
1.226000684E2,1.911331177E0,-2.808227539E-1,9.423690796E0
1.227003186E2,1.456436157E0,-3.900146484E-2,9.263275146E0
1.228005078E2,1.255325317E0,2.803039551E-2,9.390167236E0
1.229006970E2,1.240966797E0,-7.731628418E-2,9.842666626E0
1.230009168E2,1.602478027E0,-2.496948242E-1,9.481140137E0
1.231011365E2,1.808380127E0,-1.275939941E-1,9.102859497E0
1.232013257E2,1.387008667E0,-5.298156738E-1,9.548187256E0
1.233015454E2,1.516296387E0,-5.705261230E-1,9.787612915E0
1.234017346E2,1.726989746E0,-9.416198730E-1,9.550582886E0
1.235020201E2,1.492355347E0,-5.561523438E-1,8.975967407E0
1.236022094E2,1.628814697E0,-5.226440430E-1,9.543395996E0
1.237023986E2,1.420532227E0,-6.423492432E-1,9.430862427E0
1.238026183E2,1.451644897E0,-7.261505127E-1,9.957595825E0
1.239028380E2,1.358276367E0,-7.237548828E-1,9.694229126E0
1.240030272E2,1.114074707E0,-7.572631836E-1,9.562545776E0
1.241032164E2,1.063781738E0,-4.603881836E-1,9.694229126E0
1.242034362E2,8.219757080E-1,-2.736358643E-1,9.749298096E0
1.243036559E2,2.832794189E-1,-3.071594238E-1,9.938446045E0
1.244038756E2,5.442504883E-1,-3.095550537E-1,9.418899536E0
1.245040953E2,6.539916992E-2,-2.951812744E-1,9.959991455E0
1.246042540E2,-4.182281494E-1,-3.047637939E-1,9.447631836E0
1.247044738E2,2.569427490E-1,-8.314819336E-1,9.344680786E0
1.248046630E2,6.256561279E-1,-8.291015625E-1,9.797180176E0
1.249048827E2,7.956390381E-1,-1.125976562E0,9.969558716E0
1.250051024E2,1.159561157E0,-7.500915527E-1,9.363830566E0
1.251052916E2,1.094909668E0,-6.160125732E-1,9.481140137E0
1.252055114E2,1.442077637E0,-5.848846436E-1,9.447631836E0
1.253057006E2,1.262512207E0,-5.465850830E-1,9.344680786E0
1.254059203E2,1.466018677E0,-1.001480103E0,9.236938477E0
1.255061400E2,1.303207397E0,-2.808227539E-1,9.754089355E0
1.256063292E2,1.245742798E0,1.333770752E-1,9.416503906E0
1.257065490E2,1.240966797E0,1.788635254E-1,1.030235291E1
1.258067382E2,1.109283447E0,5.451812744E-1,1.000308228E1
1.259069579E2,7.238159180E-1,6.241912842E-1,9.349472046E0
1.260071471E2,1.011123657E0,3.464508057E-1,9.500305176E0
1.261073668E2,6.855010986E-1,7.654418945E-1,8.674301147E0
1.262075560E2,7.525482178E-1,3.392791748E-1,9.325531006E0
1.263077758E2,7.693023682E-1,4.254608154E-1,9.380584717E0
1.264079955E2,1.406158447E0,-3.662109375E-2,1.006294250E1
1.265082152E2,1.288848877E0,1.405639648E-1,8.932876587E0
1.266084044E2,1.468414307E0,-3.765869141E-1,9.948013306E0
1.267086242E2,1.281661987E0,1.453399658E-1,9.500305176E0
1.268088439E2,6.567687988E-1,-1.563262939E-1,9.885772705E0
1.269090331E2,5.562133789E-1,1.127624512E-2,1.007490540E1
1.270092528E2,7.453613281E-1,-2.257537842E-1,1.013955688E1
1.271094420E2,8.794403076E-1,-4.603881836E-1,1.036460876E1
1.272096312E2,1.015899658E0,-5.393981934E-1,9.866607666E0
1.273098815E2,1.128433228E0,3.761291504E-2,9.749298096E0
1.274100707E2,1.324462891E-1,-4.139709473E-2,9.682266235E0
1.275102599E2,7.405700684E-1,-2.137908936E-1,8.020690918E0
1.276104796E2,1.276550293E-1,4.957580566E-2,9.059768677E0
1.277106688E2,6.280517578E-1,-4.603881836E-1,9.739715576E0
1.278108886E2,1.248138428E0,-9.176788330E-1,1.028320312E1
1.279111083E2,3.574981689E-1,-1.084442139E-1,9.519454956E0
1.280112975E2,2.904663086E-1,-2.544860840E-1,9.507476807E0
1.281115477E2,4.412994385E-1,-4.364471436E-1,9.473968506E0
1.282117369E2,5.822753906E-2,-1.730804443E-1,9.505096436E0
1.283119262E2,1.611785889E-1,-5.920715332E-1,9.763656616E0
1.284121154E2,6.301879883E-2,-2.377319336E-1,9.622406006E0
1.285123656E2,-8.300170898E-1,3.521728516E-2,9.399749756E0
1.286125243E2,-1.289718628E0,1.621093750E-1,9.387771606E0
1.287127440E2,-1.335205078E0,3.105468750E-1,9.246520996E0
1.288129332E2,-1.246612549E0,-1.180114746E-1,1.000068665E1
1.289131530E2,-1.670394897E0,1.166076660E-1,9.679870605E0
1.290133727E2,-1.823623657E0,6.394958496E-2,9.969558716E0
1.291135619E2,-1.861923218E0,9.985351562E-2,9.567337036E0
1.292137816E2,-1.457305908E0,-2.856140137E-1,1.029995728E1
1.293140013E2,-1.421386719E0,1.070404053E-1,8.834716797E0
1.294142211E2,-5.331420898E-1,-4.867248535E-1,9.809158325E0
1.295144408E2,-4.711914062E-2,-1.156158447E-1,9.950408936E0
1.296145995E2,2.784881592E-1,-5.537567139E-1,1.021377563E1
1.297148192E2,3.862304688E-1,-6.782531738E-1,9.311157227E0
1.298150084E2,5.394592285E-1,-5.896759033E-1,9.430862427E0
1.299152282E2,1.061096191E-1,-3.646240234E-1,9.835494995E0
1.300154784E2,2.018737793E-1,-3.502502441E-1,9.598464966E0
1.301156676E2,-8.543395996E-2,-1.682891846E-1,1.018504333E1
1.302158568E2,2.234191895E-1,-5.058746338E-1,9.555374146E0
1.303160460E2,5.104064941E-2,-1.563262939E-1,9.191452026E0
1.304162658E2,1.372375488E-1,-1.802673340E-1,9.533813477E0
1.305164855E2,-5.430603027E-2,-3.430786133E-1,9.636764526E0
1.306166747E2,-2.078247070E-2,-7.740325928E-1,9.490722656E0
1.307168639E2,-1.404876709E-1,-2.377319336E-1,8.899353027E0
1.308170836E2,-2.530212402E-1,-4.244689941E-1,9.327911377E0
1.309172728E2,1.034545898E-2,-3.406829834E-1,9.713378906E0
1.310174926E2,2.138519287E-1,-5.370025635E-1,1.013955688E1
1.311177123E2,1.013183594E-1,-3.789825439E-1,9.904922485E0
1.312179015E2,2.736968994E-1,-3.598327637E-1,9.643951416E0
1.313181212E2,4.197540283E-1,-1.515350342E-1,8.973571777E0
1.314183104E2,1.037139893E-1,-4.316558838E-1,9.129196167E0
1.315185607E2,-5.191040039E-2,-5.154571533E-1,9.576919556E0
1.316187499E2,-5.430603027E-2,-2.592773438E-1,9.519454956E0
1.317189391E2,-2.458343506E-1,-4.675750732E-1,1.009645081E1
1.318191588E2,9.413146973E-2,-4.699707031E-1,9.648742676E0
1.319193480E2,-3.032989502E-1,-8.450317383E-2,9.129196167E0
1.320195678E2,3.158569336E-3,-6.088256836E-1,9.842666626E0
1.321197875E2,1.512145996E-2,-1.658935547E-1,9.203414917E0
1.322199767E2,3.646850586E-1,-5.729217529E-1,9.143569946E0
1.323201659E2,1.492004395E-1,-5.729217529E-1,9.576919556E0
1.324203856E2,4.676361084E-1,-6.950225830E-1,9.567337036E0
1.325206054E2,-2.841491699E-1,-3.765869141E-1,1.001026917E1
1.326207946E2,2.425842285E-1,-3.526458740E-1,9.876190186E0
1.327210143E2,5.343627930E-2,-1.611175537E-1,9.215393066E0
1.328212035E2,3.072204590E-1,-3.358917236E-1,9.251296997E0
1.329214232E2,1.204681396E-1,-2.281494141E-1,9.600860596E0
1.330216124E2,3.668212891E-2,-6.423492432E-1,9.797180176E0
1.331218322E2,2.709960938E-2,-6.591033936E-1,9.715774536E0
1.332220519E2,1.751708984E-2,-4.149017334E-1,9.557754517E0
1.333222411E2,2.066650391E-1,-8.674011230E-1,9.562545776E0
1.334224369E2,2.210235596E-1,-7.692413330E-1,1.008448792E1
1.335226566E2,4.245300293E-1,-7.093811035E-1,9.564941406E0
1.336228458E2,2.784881592E-1,-5.106658936E-1,9.217788696E0
1.337230655E2,1.659698486E-1,-4.819335938E-1,9.928863525E0
1.338232547E2,1.994781494E-1,-3.981323242E-1,9.529037476E0
1.339234744E2,1.539916992E-1,-4.029235840E-1,9.093292236E0
1.340236637E2,2.713012695E-1,-4.963073730E-1,9.773239136E0
1.341238834E2,-3.056945801E-1,-7.165679932E-1,1.012518311E1
1.342240726E2,8.695983887E-2,-3.263092041E-1,9.227355957E0
1.343242923E2,3.428649902E-2,-4.699707031E-1,9.780426025E0
1.344244815E2,2.018737793E-1,-7.620544434E-1,9.861831665E0
1.345247013E2,3.742523193E-1,-8.434600830E-1,9.581710815E0
1.346249210E2,-2.003479004E-1,-1.020629883E0,1.055853271E1
1.347251102E2,3.431396484E-1,-1.850585938E-1,9.682266235E0
1.348253299E2,2.449645996E-1,-5.082702637E-1,1.007490540E1
1.349255496E2,-2.937164307E-1,-2.856140137E-1,9.507476807E0
1.350257389E2,1.372375488E-1,-3.933563232E-1,9.533813477E0
1.351259586E2,-2.078247070E-2,-5.657348633E-1,9.742111206E0
1.352261478E2,3.311614990E-1,-5.968627930E-1,9.562545776E0
1.353263675E2,5.822753906E-2,-8.386688232E-1,1.002462769E1
1.354265567E2,1.994781494E-1,-4.053192139E-1,9.852249146E0
1.355267765E2,6.779479980E-2,-7.572631836E-1,9.591278076E0
1.356269962E2,1.156921387E-1,-7.285308838E-1,1.032391357E1
1.357271854E2,1.324462891E-1,-4.436340332E-1,9.347076416E0
1.358274051E2,-4.951477051E-2,-9.583740234E-1,9.813934326E0
1.359275943E2,3.742523193E-1,-8.243103027E-1,9.600860596E0
1.360278140E2,5.011444092E-1,-1.102035522E0,1.009407043E1
1.361280033E2,3.263702393E-1,-6.614990234E-1,9.725357056E0
1.362282230E2,2.736968994E-1,-5.561523438E-1,9.227355957E0
1.363284122E2,2.928619385E-1,-8.602142334E-1,9.639160156E0
1.364286319E2,-2.796936035E-2,-8.450317383E-2,9.124404907E0
1.365288516E2,5.343627930E-2,-4.747467041E-1,9.655929565E0
1.366290409E2,4.867858887E-1,-6.830444336E-1,1.021138000E1
1.367292606E2,1.013183594E-1,-4.939117432E-1,9.627197266E0
1.368294498E2,2.425842285E-1,-1.658935547E-1,9.481140137E0
1.369296695E2,2.230834961E-2,-1.039779663E0,1.068064880E1
1.370298892E2,1.109283447E0,-1.587219238E-1,8.600082397E0
1.371300785E2,-5.191040039E-2,-3.670196533E-1,9.526641846E0
1.372302982E2,5.418548584E-1,-7.716369629E-1,9.909713745E0
1.373304874E2,1.300506592E-1,-6.974182129E-1,9.818725586E0
1.374307071E2,2.210235596E-1,-8.027648926E-1,9.411712646E0
1.375309268E2,6.615600586E-1,-3.981323242E-1,9.318344116E0
1.376311466E2,4.580535889E-1,-2.137908936E-1,9.100463867E0
1.377313053E2,3.646850586E-1,-4.963073730E-1,9.912109375E0
1.378315250E2,5.538177490E-1,-6.533813477E-2,9.033432007E0
1.379317447E2,3.287658691E-1,-5.609436035E-1,9.684661865E0
1.380319339E2,-6.423950195E-3,-6.567077637E-1,1.019702148E1
1.381321536E2,8.456420898E-2,-1.204071045E-1,9.119628906E0
1.382323429E2,4.867858887E-1,-5.322113037E-1,9.416503906E0
1.383325626E2,3.024291992E-1,-6.184082031E-1,1.014672852E1
1.384327823E2,4.795989990E-1,-7.979736328E-1,9.679870605E0
1.385329715E2,5.873413086E-1,-6.974182129E-1,9.284820557E0
1.386332218E2,5.873413086E-1,-6.686859131E-1,9.287216187E0
1.387334110E2,3.120117188E-1,-3.837738037E-1,9.289611816E0
1.388336002E2,5.343627930E-2,-7.045898438E-1,9.483535767E0
1.389338199E2,5.083312988E-1,-9.655609131E-1,9.847457886E0
1.390340091E2,5.131225586E-1,-8.889465332E-1,9.936050415E0
1.391342288E2,6.855010986E-1,-7.333221436E-1,9.531433105E0
1.392344181E2,3.144073486E-1,-6.998138428E-1,9.643951416E0
1.393346378E2,5.634002686E-1,-5.753021240E-1,9.737319946E0
1.394348575E2,7.022705078E-1,-7.429046631E-1,1.022334290E1
1.395350467E2,8.195800781E-1,-9.224700928E-1,1.000068665E1
1.396352970E2,2.617340088E-1,-6.926269531E-1,9.943222046E0
1.397354556E2,6.400146484E-1,-8.123321533E-1,1.012518311E1
1.398356754E2,1.092514038E0,-1.018234253E0,8.999908447E0
1.399358951E2,1.147583008E0,-5.577087402E-2,8.094909668E0
1.400360843E2,4.624938965E-2,-1.008666992E0,9.567337036E0
1.401362735E2,3.886260986E-1,-4.364471436E-1,9.296798706E0
1.402364932E2,6.998748779E-1,-5.896759033E-1,9.849853516E0
1.403367130E2,7.214202881E-1,-6.112213135E-1,9.699020386E0
1.404369327E2,9.967498779E-1,-5.705261230E-1,9.409317017E0
1.405371219E2,9.153442383E-1,-7.596588135E-1,9.751693726E0
1.406373416E2,6.711425781E-1,-5.202484131E-1,9.557754517E0
1.407375308E2,1.025482178E0,-7.500915527E-1,9.773239136E0
1.408377201E2,9.153442383E-1,-5.202484131E-1,9.689437866E0
1.409379398E2,1.276870728E0,-5.681304932E-1,9.703811646E0
1.410381595E2,9.392852783E-1,-4.412384033E-1,9.639160156E0
1.411383487E2,8.770446777E-1,-6.830444336E-1,9.409317017E0
1.412385684E2,1.310394287E0,-1.166671753E0,1.018504333E1
1.413387882E2,1.128433228E0,-8.913421631E-1,9.955200195E0
1.414389774E2,1.262512207E0,-5.968627930E-1,9.485931396E0
1.415391971E2,1.296020508E0,-9.918975830E-1,1.005096436E1
1.416394168E2,1.286453247E0,-7.955780029E-1,9.615219116E0
1.417396060E2,1.236175537E0,-7.405090332E-1,9.181869507E0
1.418397952E2,1.197860718E0,-7.285308838E-1,9.426086426E0
1.419400150E2,1.336730957E0,-8.530426025E-1,9.505096436E0
1.420402042E2,1.305603027E0,-1.037384033E0,9.773239136E0
1.421404239E2,1.487564087E0,-7.812042236E-1,9.545791626E0
1.422406131E2,1.343917847E0,-5.202484131E-1,9.572128296E0
1.423408328E2,1.509109497E0,-7.357177734E-1,9.337493896E0
1.424410526E2,1.310394287E0,-8.650054932E-1,9.579315186E0
1.425412418E2,1.336730957E0,-8.602142334E-1,8.820343018E0
1.426414615E2,1.561782837E0,-6.294250488E-2,9.143569946E0
1.427417118E2,1.954437256E0,-7.117767334E-1,9.387771606E0
1.428419010E2,1.197860718E0,-7.189636230E-1,9.730148315E0
1.429421207E2,1.346298218E0,-9.392242432E-1,9.742111206E0
1.430423099E2,1.219406128E0,-7.476959229E-1,9.342285156E0
1.431425296E2,1.260116577E0,-1.099639893E0,9.224975586E0
1.432427494E2,1.489959717E0,-1.061325073E0,9.280029297E0
1.433429386E2,1.863449097E0,-1.075698853E0,9.526641846E0
1.434431244E2,1.566574097E0,-6.734771729E-1,9.373413086E0
1.435433442E2,1.616851807E0,-4.412384033E-1,9.756484985E0
1.436435639E2,1.446853638E0,-7.117767334E-1,1.028320312E1
1.437437531E2,1.219406128E0,-8.961334229E-1,9.928863525E0
1.438439728E2,1.583328247E0,-7.453002930E-1,9.438049316E0
1.439441315E2,1.530654907E0,-4.220733643E-1,9.924072266E0
1.440443512E2,1.255325317E0,-7.548675537E-1,9.052581787E0
1.441445405E2,5.035400391E-1,-7.285308838E-1,9.320739746E0
1.442447602E2,7.453613281E-1,-2.233581543E-1,9.354248047E0
1.443449799E2,5.322723389E-1,-1.180114746E-1,9.641555786E0
1.444451691E2,4.484863281E-1,-7.189636230E-1,9.778030396E0
1.445453888E2,8.602752686E-1,-3.430786133E-1,8.978363037E0
1.446456086E2,6.232604980E-1,-3.598327637E-1,9.646347046E0
1.447457978E2,1.264907837E0,-7.692413330E-1,9.093292236E0
1.448460480E2,7.453613281E-1,-9.646606445E-2,9.885772705E0
1.449462372E2,8.842163086E-1,-4.244689941E-1,1.020179749E1
1.450464264E2,7.477569580E-1,-2.616729736E-1,9.701416016E0
1.451466462E2,3.766479492E-1,-2.233581543E-1,9.971954346E0
1.452468354E2,7.645111084E-1,-9.407043457E-2,9.658325195E0
1.453470246E2,8.483123779E-1,1.605224609E-2,9.854644775E0
1.454472443E2,1.159561157E0,-5.202484131E-1,9.236938477E0
1.455474640E2,9.776000977E-1,-1.635131836E-1,9.100463867E0
1.456477143E2,1.439682007E0,-2.736358643E-1,9.160324097E0
1.457478425E2,1.358276367E0,-2.113952637E-1,9.292007446E0
1.458480622E2,8.818359375E-1,-3.861694336E-1,9.224975586E0
1.459482819E2,6.759338379E-1,-7.731628418E-2,9.806762695E0
1.460484711E2,8.650665283E-1,-1.204071045E-1,9.502700806E0
1.461486908E2,4.795989990E-1,-3.813781738E-1,9.476364136E0
1.462488801E2,3.048248291E-1,3.536376953E-1,1.001983643E1
1.463490998E2,1.123641968E0,-3.215179443E-1,8.640777588E0
1.464493195E2,9.081726074E-1,-1.874542236E-1,9.354248047E0
1.465495087E2,6.495971680E-1,1.844787598E-2,9.088500977E0
1.466497284E2,6.136779785E-1,-3.598327637E-1,9.490722656E0
1.467499176E2,6.448059082E-1,-4.005279541E-1,9.766052246E0
1.468501374E2,6.136779785E-1,-3.382873535E-1,9.196243286E0
1.469503571E2,9.105529785E-1,-5.106658936E-1,9.691833496E0
1.470505768E2,5.825500488E-1,-3.215179443E-1,9.823516846E0
1.471507660E2,1.539916992E-1,-4.627838135E-1,9.689437866E0
1.472509552E2,-1.359558105E-2,-2.640686035E-1,9.282424927E0
1.473511750E2,1.061096191E-1,-3.287048340E-1,9.567337036E0
1.474513947E2,3.383483887E-1,-1.682891846E-1,9.234542847E0
1.475515839E2,2.713012695E-1,-3.263092041E-1,9.864227295E0
1.476518036E2,-2.769622803E-1,-1.036529541E-1,1.029995728E1
1.477520234E2,4.293212891E-1,-3.239135742E-1,9.292007446E0
1.478522126E2,9.225311279E-1,-7.357177734E-1,9.663101196E0
1.479524323E2,-2.961120605E-1,-6.399536133E-1,1.033587646E1
1.480526215E2,2.569427490E-1,-3.933563232E-1,1.004139709E1
1.481528412E2,-1.285247803E-1,1.788635254E-1,8.918502808E0
1.482530304E2,1.563873291E-1,-4.508056641E-1,9.849853516E0
1.483532502E2,-6.423950195E-3,-4.196929932E-1,9.536209106E0
1.484534394E2,-1.500701904E-1,-3.765869141E-1,9.560150146E0
1.485536591E2,-1.309204102E-1,-2.209625244E-1,9.842666626E0
1.486538788E2,1.683502197E-1,-4.532012939E-1,8.887390137E0
1.487540680E2,6.088867188E-1,-4.555969238E-1,9.428482056E0
1.488542572E2,3.838348389E-1,-1.467437744E-1,9.701416016E0
1.489544770E2,1.515960693E-1,-1.778717041E-1,9.143569946E0
1.490546967E2,2.617340088E-1,-6.040344238E-1,9.988723755E0
1.491548859E2,1.156921387E-1,-2.760314941E-1,9.246520996E0
1.492551056E2,-2.410583496E-1,-4.388427734E-1,9.634368896E0
1.493552948E2,-1.740112305E-1,-3.981323242E-1,9.335098267E0
1.494555146E2,1.779327393E-1,-5.226440430E-1,9.837890625E0
1.495557343E2,-1.764068604E-1,-2.377319336E-1,9.766052246E0
1.496559540E2,4.436950684E-1,-5.513610840E-1,9.514663696E0
1.497561432E2,3.814392090E-1,-3.334960938E-1,9.521850586E0
1.498563630E2,7.977294922E-2,-2.425079346E-1,9.299194336E0
1.499565522E2,4.864501953E-2,-4.220733643E-1,9.464385986E0
1.500567719E2,3.428649902E-2,-4.029235840E-1,9.888168335E0
1.501569611E2,-9.979248047E-2,-1.850585938E-1,9.730148315E0
1.502571808E2,-2.434387207E-1,-3.406829834E-1,9.136383057E0
1.503573700E2,6.539916992E-2,-4.053192139E-1,9.552978516E0
1.504575898E2,3.158569336E-3,-4.867248535E-1,9.835494995E0
1.505578095E2,1.923065186E-1,-6.231994629E-1,9.998291016E0
1.506580292E2,6.950836182E-1,-8.458557129E-1,1.024729919E1
1.507582184E2,2.401885986E-1,-5.441894531E-1,9.325531006E0
1.508584076E2,-2.410583496E-1,-8.075408936E-1,9.555374146E0
1.509586274E2,5.059356689E-1,-9.871063232E-1,8.588104248E0
1.510588471E2,2.569427490E-1,-3.191223145E-1,9.122024536E0
1.511590363E2,-5.259552002E-1,-4.532012939E-1,9.533813477E0
1.512592560E2,3.359527588E-1,-5.370025635E-1,9.390167236E0
1.513594452E2,3.263702393E-1,-6.567077637E-1,9.742111206E0
1.514596650E2,3.239746094E-1,-6.399536133E-1,9.567337036E0
1.515598847E2,3.646850586E-1,-5.896759033E-1,1.019462585E1
1.516601044E2,4.389038086E-1,-5.058746338E-1,8.987945557E0
1.517602631E2,1.755371094E-1,-3.789825439E-1,9.639160156E0
1.518604828E2,-3.224487305E-1,-8.458557129E-1,9.292007446E0
1.519607026E2,9.652709961E-2,-3.741912842E-1,9.196243286E0
1.520608918E2,1.946868896E-1,-5.154571533E-1,9.861831665E0
1.521611115E2,-2.338714600E-1,-1.635131836E-1,9.198638916E0
1.522613312E2,-9.260559082E-2,-6.351623535E-1,9.620010376E0
1.523615204E2,1.348419189E-1,-8.841552734E-1,9.787612915E0
1.524617402E2,5.562133789E-1,-5.034790039E-1,9.536209106E0
1.525619294E2,-1.620483398E-1,-5.346069336E-1,9.761276245E0
1.526621491E2,6.539916992E-2,-4.220733643E-1,9.502700806E0
1.527623383E2,2.545471191E-1,-7.692413330E-1,9.392562866E0
1.528625580E2,1.204681396E-1,-8.841552734E-1,9.394958496E0
1.529627472E2,2.114562988E-1,-5.896759033E-1,9.421295166E0
1.530629670E2,1.180725098E-1,-4.053192139E-1,9.138778687E0
1.531631562E2,8.315582275E-1,-8.362731934E-1,9.713378906E0
1.532633759E2,2.377929688E-1,7.351684570E-2,9.859436035E0
1.533635956E2,2.425842285E-1,-8.482513428E-1,9.414108276E0
1.534638101E2,4.101715088E-1,-2.353363037E-1,9.440444946E0
1.535640298E2,1.274108887E-2,-3.670196533E-1,9.301589966E0
1.536642496E2,-1.452789307E-1,-5.097961426E-2,8.523468018E0
1.537644388E2,-2.554168701E-1,-4.484100342E-1,9.423690796E0
1.538646585E2,-3.463897705E-1,-6.279754639E-1,9.505096436E0
1.539648477E2,-3.344268799E-1,-4.292602539E-1,9.268066406E0
1.540650674E2,7.737731934E-2,-2.928009033E-1,9.567337036E0
1.541652566E2,-1.357116699E-1,-2.305450439E-1,9.181869507E0
1.542654764E2,3.431396484E-1,-6.614990234E-1,9.356643677E0
1.543656656E2,4.077758789E-1,-5.577087402E-2,8.655151367E0
1.544658853E2,-5.570831299E-1,-5.274200439E-1,9.313552856E0
1.545660745E2,2.210235596E-1,-6.040344238E-1,9.916885376E0
1.546662942E2,-1.045837402E-1,-5.337524414E-2,9.007095337E0
1.547665140E2,2.593383789E-1,-8.243103027E-1,1.023771667E1
1.548667337E2,-4.232788086E-2,-4.579925537E-1,1.020898438E1
1.549669229E2,7.884521484E-1,-8.003692627E-1,1.044361877E1
1.550671121E2,9.488677979E-1,-6.662902832E-1,9.861831665E0
1.551673318E2,2.353973389E-1,-8.003692627E-1,1.028559875E1
1.552675516E2,-6.887664795E-1,-7.012939453E-2,9.299194336E0
1.553677408E2,-4.206237793E-1,-2.185668945E-1,1.051304626E1
1.554679605E2,1.686279297E0,-4.292602539E-1,1.010363770E1
1.555681497E2,5.657958984E-1,-3.334960938E-1,9.665496826E0
1.556683694E2,1.899108887E-1,-4.963073730E-1,9.948013306E0
1.557685892E2,9.892272949E-2,-3.382873535E-1,9.394958496E0
1.558687784E2,1.827239990E-1,-4.867248535E-1,9.198638916E0
1.559689676E2,-2.796936035E-2,-5.202484131E-1,9.854644775E0
1.560691873E2,-1.404876709E-1,-7.883911133E-1,1.020179749E1
1.561694070E2,8.695983887E-2,-8.099365234E-1,1.011801147E1
1.562695962E2,4.508666992E-1,-7.022094727E-1,1.005815125E1
1.563698160E2,3.742523193E-1,-2.688446045E-1,9.442840576E0
1.564700357E2,1.396331787E-1,-7.476959229E-1,1.020658875E1
1.565702249E2,-4.253997803E-1,-6.614990234E-1,9.928863525E0
1.566704446E2,-1.093750000E-1,-4.316558838E-1,9.629592896E0
1.567706338E2,-1.596527100E-1,-5.202484131E-1,9.040618896E0
1.568708536E2,2.880706787E-1,-5.992584229E-1,9.344680786E0
1.569710733E2,1.991271973E-2,-1.025421143E0,9.828308105E0
1.570712625E2,3.215789795E-1,-1.826629639E-1,8.834716797E0
1.571714517E2,6.735382080E-1,-7.812042236E-1,1.039334106E1
1.572716714E2,3.120117188E-1,-9.057159424E-1,9.976745605E0
1.573718912E2,3.383483887E-1,-5.154571533E-1,9.435653687E0
1.574720804E2,-2.649993896E-1,-2.904052734E-1,9.447631836E0
1.575723001E2,1.991271973E-2,-4.843292236E-1,9.332702637E0
1.576724893E2,3.000335693E-1,-6.016387939E-1,9.823516846E0
1.577727090E2,1.994781494E-1,-2.760314941E-1,9.993499756E0
1.578729288E2,4.029846191E-1,-1.970214844E-1,1.018743896E1
1.579731180E2,-2.841491699E-1,-7.931823730E-1,1.041488647E1
1.580733377E2,3.024291992E-1,-3.574371338E-1,9.521850586E0
1.581735269E2,1.731414795E-1,-5.082702637E-1,9.722961426E0
1.582737466E2,2.230834961E-2,-2.688446045E-1,9.375808716E0
1.583739664E2,-2.078247070E-2,-4.963073730E-1,9.995895386E0
1.584741556E2,-5.882110596E-1,-6.447448730E-1,9.325531006E0
1.585743753E2,-2.530212402E-1,-1.778717041E-1,9.380584717E0
1.586745645E2,-8.013000488E-1,-6.734771729E-1,9.593673706E0
1.587747842E2,-1.811981201E-1,-6.638946533E-1,9.452423096E0
1.588749734E2,-3.990631104E-1,-4.125061035E-1,8.990341187E0
1.589751932E2,-1.333160400E-1,-2.880096436E-1,9.057373047E0
1.590754129E2,9.173583984E-2,-3.478546143E-1,9.191452026E0
1.591756021E2,5.822753906E-2,-5.681304932E-1,9.584091187E0
1.592758218E2,6.779479980E-2,-4.963073730E-1,9.825912476E0
1.593760110E2,-7.345581055E-2,-5.274200439E-1,9.763656616E0
1.594762308E2,7.737731934E-2,-3.789825439E-1,1.004377747E1
1.595764200E2,-6.866455078E-2,-5.753021240E-1,9.737319946E0
1.596766397E2,-3.276062012E-2,-7.931823730E-1,1.007490540E1
1.597768594E2,-8.543395996E-2,-3.263092041E-1,9.715774536E0
1.598770486E2,-3.753662109E-2,-6.974182129E-1,9.359039307E0
1.599772684E2,3.668212891E-2,-7.333221436E-1,9.481140137E0
1.600774576E2,4.532623291E-1,-5.441894531E-1,9.519454956E0
1.601776773E2,1.683502197E-1,-5.896759033E-1,9.541000366E0
1.602778970E2,4.556579590E-1,-7.812042236E-1,9.924072266E0
1.603780862E2,4.819946289E-1,-6.136169434E-1,9.375808716E0
1.604783365E2,1.899108887E-1,-6.710815430E-1,1.007730103E1
1.605785257E2,3.158569336E-3,-4.077148438E-1,9.306365967E0
1.606787149E2,-3.463897705E-1,-7.309265137E-1,9.631988525E0
1.607789346E2,-7.585144043E-2,-2.616729736E-1,1.000308228E1
1.608791238E2,1.228637695E-1,-8.434600830E-1,9.392562866E0
1.609793130E2,6.232604980E-1,-6.662902832E-1,9.811553955E0
1.610795328E2,4.604492188E-1,-3.454589844E-1,1.009167480E1
1.611797220E2,1.991271973E-2,-2.640686035E-1,9.646347046E0
1.612799417E2,3.622894287E-1,-4.915161133E-1,9.581710815E0
1.613801614E2,7.258605957E-2,-4.723510742E-1,1.004377747E1
1.614803506E2,-5.191040039E-2,-5.729217529E-1,1.013716125E1
1.615805704E2,8.216857910E-2,-3.622283936E-1,9.272857666E0
1.616807596E2,-6.149291992E-2,-3.789825439E-1,9.172302246E0
1.617810098E2,2.641296387E-1,6.484985352E-3,8.949630737E0
1.618811685E2,5.343627930E-2,-1.994171143E-1,9.284820557E0
1.619813882E2,-3.224487305E-1,-3.143463135E-1,9.708602905E0
1.620815774E2,1.930496216E0,-3.957366943E-1,9.907318115E0
1.621817972E2,9.081726074E-1,-5.058746338E-1,9.459594727E0
1.622820169E2,7.949829102E-3,-3.182983398E-2,9.133987427E0
1.623822061E2,-1.112533569E0,-1.419525146E-1,1.023052979E1
1.624824258E2,1.054214478E0,-7.213592529E-1,9.588882446E0
1.625826456E2,-3.276062012E-2,-7.141723633E-1,9.548187256E0
1.626828348E2,-5.909729004E-2,-4.196929932E-1,1.061120605E1
1.627830545E2,-3.679504395E-1,-1.204071045E-1,1.023532104E1
1.628832437E2,-6.624298096E-1,-3.765869141E-1,1.001266479E1
1.629834634E2,1.023086548E0,-9.296569824E-1,1.036940002E1
1.630836526E2,5.873413086E-1,-3.957366943E-1,9.208206177E0
1.631838724E2,-5.430603027E-2,-1.395721436E-1,9.004699707E0
1.632840616E2,-1.435760498E0,-2.688446045E-1,1.068542480E1
1.633842813E2,6.783294678E-1,-2.616729736E-1,9.368621826E0
1.634844334E2,5.179138184E-1,-7.093811035E-1,8.930480957E0
1.635846532E2,-2.078247070E-2,-6.686859131E-1,1.010842896E1
1.636848729E2,-6.815795898E-1,-1.012573242E-1,9.552978516E0
1.637850926E2,-6.672210693E-1,-2.472991943E-1,9.196243286E0
1.638852818E2,2.035827637E0,-2.832183838E-1,9.722961426E0
1.639854710E2,8.961944580E-1,-1.051757812E0,9.483535767E0
1.640856907E2,5.251007080E-1,-3.789825439E-1,8.248138428E0
1.641858800E2,-2.171020508E-1,-1.347808838E-1,8.911331177E0
1.642860997E2,9.652709961E-2,-6.758728027E-1,9.332702637E0
1.643862889E2,1.587829590E-1,-8.099365234E-1,9.684661865E0
1.644865086E2,-1.381072998E-1,-2.209625244E-1,9.924072266E0
1.645867283E2,4.385375977E-2,-5.513610840E-1,1.011561584E1
1.646869481E2,-4.685058594E-1,-5.992584229E-1,9.837890625E0
1.647871373E2,4.149627686E-1,-2.496948242E-1,9.706207275E0
1.648873265E2,6.352233887E-1,-5.944671631E-1,9.995895386E0
1.649875462E2,2.282104492E-1,-8.689880371E-2,8.422912598E0
1.650877659E2,-5.762329102E-1,-2.880096436E-1,1.030235291E1
1.651879552E2,3.694763184E-1,-8.243103027E-1,9.983932495E0
1.652881749E2,1.396575928E0,-4.843292236E-1,8.497131348E0
1.653883641E2,4.077758789E-1,-2.688446045E-1,9.397354126E0
1.654885838E2,1.252593994E-1,-7.788238525E-1,9.986328125E0
1.655887730E2,-7.941131592E-1,-7.429046631E-1,1.008688354E1
1.656889928E2,-3.918914795E-1,-3.861694336E-1,9.390167236E0
1.657892125E2,8.411254883E-1,-6.878356934E-1,9.476364136E0
1.658894017E2,3.096160889E-1,-3.717956543E-1,9.574523926E0
1.659896214E2,-1.740112305E-1,1.605224609E-2,9.713378906E0
1.660898106E2,-5.714569092E-1,-1.515350342E-1,1.018504333E1
1.661899998E2,1.102096558E0,-5.346069336E-1,8.863449097E0
1.662902196E2,3.311614990E-1,-5.896759033E-1,9.016677856E0
1.663904393E2,-5.139923096E-1,-4.005279541E-1,9.936050415E0
1.664906285E2,-3.727264404E-1,-2.496948242E-1,9.804367065E0
1.665908482E2,-3.799133301E-1,-2.353363037E-1,9.833099365E0
1.666910374E2,1.202651978E0,-6.471405029E-1,9.131591797E0
1.667912877E2,1.521087646E0,-6.974182129E-1,9.574523926E0
1.668914769E2,-9.042510986E-1,-1.506042480E-2,9.507476807E0
1.669916661E2,-3.703308105E-1,-4.340515137E-1,9.524246216E0
1.670918858E2,9.892272949E-2,-2.113952637E-1,1.009167480E1
1.671920750E2,3.096160889E-1,-6.950225830E-1,9.356643677E0
1.672922948E2,4.365081787E-1,-3.598327637E-1,9.926467896E0
1.673924840E2,-4.028320312E-3,-1.395721436E-1,9.840270996E0
1.674927037E2,-6.624298096E-1,-6.533813477E-2,9.631988525E0
1.675929234E2,-3.439941406E-1,-5.250244141E-1,9.392562866E0
1.676931126E2,1.856262207E0,-6.878356934E-1,9.924072266E0
1.677933629E2,2.018737793E-1,-3.478546143E-1,9.667892456E0
1.678935216E2,-6.149291992E-2,-7.381134033E-1,9.794784546E0
1.679937413E2,-1.311264038E0,-4.149017334E-1,1.035502625E1
1.680939305E2,1.398971558E0,-7.764282227E-1,8.928085327E0
1.681941502E2,9.033813477E-1,-5.226440430E-1,9.258483887E0
1.682943394E2,2.709960938E-2,-4.244689941E-1,9.876190186E0
1.683945592E2,-7.629852295E-1,-4.555969238E-1,8.992736816E0
1.684947789E2,3.551025391E-1,-8.961334229E-1,1.012518311E1
1.685949681E2,5.969238281E-1,-4.101104736E-1,9.713378906E0
1.686951878E2,1.463623047E0,-8.578186035E-1,1.001026917E1
1.687954075E2,2.709960938E-2,-2.616729736E-1,9.433258057E0
1.688955968E2,-1.026351929E0,2.243499756E-1,9.821121216E0
1.689958165E2,-6.480712891E-1,-3.167419434E-1,1.092245483E1
1.690960057E2,1.513900757E0,-2.616729736E-1,9.143569946E0
1.691962254E2,2.066650391E-1,-5.944671631E-1,8.992736816E0
1.692964146E2,-7.294616699E-1,-1.754760742E-1,9.892944336E0
1.693966344E2,-1.213104248E0,-6.294250488E-2,8.446853638E0
1.694968236E2,1.444091797E-1,-2.712402344E-1,1.004139709E1
1.695970433E2,9.129486084E-1,-3.502502441E-1,9.778030396E0
1.696972325E2,1.183502197E0,-9.583740234E-1,1.034545898E1
1.697974827E2,8.746490479E-1,-8.689880371E-2,8.363052368E0
1.698976720E2,-4.493408203E-1,-2.449035645E-1,9.675079346E0
1.699978917E2,-1.064651489E0,-4.388427734E-1,1.070936584E1
1.700980809E2,1.116455078E0,-7.141723633E-1,8.997512817E0
1.701983006E2,5.131225586E-1,-9.703521729E-1,9.260879517E0
1.702984898E2,-1.883850098E-1,-1.658935547E-1,1.048191833E1
1.703986790E2,-8.443908691E-1,3.296966553E-1,9.093292236E0
1.704988988E2,-1.019165039E0,-7.971191406E-2,9.478759766E0
1.705990880E2,1.875152588E-1,-4.053192139E-1,9.371017456E0
1.706993077E2,5.538177490E-1,-8.195190430E-1,1.022334290E1
1.707995274E2,2.689208984E-1,-7.019042969E-4,8.339111328E0
1.708997166E2,-1.134094238E0,-3.182983398E-2,9.936050415E0
1.709999364E2,-9.784698486E-1,-3.430786133E-1,9.617614746E0
1.711001561E2,4.508666992E-1,-4.340515137E-1,9.059768677E0
1.712003453E2,-2.314758301E-1,-4.172973633E-1,1.017546082E1
1.713005955E2,-3.775177002E-1,-3.909606934E-1,9.184265137E0
1.714008153E2,-8.395996094E-1,-8.554382324E-1,9.292007446E0
1.715009740E2,-5.666656494E-1,-8.482513428E-1,9.588882446E0
1.716011937E2,1.272079468E0,-5.776977539E-1,1.001506042E1
1.717013829E2,1.659698486E-1,-3.454589844E-1,8.796401978E0
1.718016026E2,-6.815795898E-1,-3.182983398E-2,1.003181458E1
1.719017918E2,-6.193389893E-1,-3.933563232E-1,9.775634766E0
1.720019810E2,-6.935577393E-1,-2.472991943E-1,9.993499756E0
1.721022008E2,-9.042510986E-1,-2.999725342E-1,1.031672668E1
1.722024205E2,-8.803100586E-1,-2.449035645E-1,9.727752686E0
1.723026097E2,-9.329681396E-1,-5.489654541E-1,9.928863525E0
1.724028294E2,9.752044678E-1,-1.109222412E0,9.888168335E0
1.725030186E2,-7.510223389E-1,-4.388427734E-1,9.239334106E0
1.726032384E2,-1.519561768E0,-1.323852539E-1,1.026405334E1
1.727034581E2,-1.692199707E-1,-6.279754639E-1,9.215393066E0
1.728036778E2,-5.211791992E-1,-3.454589844E-1,1.035502625E1
1.729038670E2,-1.574615479E0,-1.515350342E-1,9.191452026E0
1.730040562E2,-1.141265869E0,-8.913421631E-1,9.789993286E0
1.731042760E2,-6.049652100E-1,2.803039551E-2,8.832321167E0
1.732044652E2,-2.326400757E0,-5.250244141E-1,1.127200317E1
1.733046849E2,-2.745666504E-1,-8.362731934E-1,9.229751587E0
1.734049046E2,-4.732818604E-1,-9.799346924E-1,1.003900146E1
1.735051180E2,-1.232254028E0,-4.292602539E-1,9.382980347E0
1.736053377E2,-2.314758301E-1,-5.513610840E-1,9.665496826E0
1.737055269E2,-1.428573608E0,-1.371765137E-1,1.037419128E1
1.738057466E2,-1.656021118E0,-9.886169434E-2,9.586486816E0
1.739059359E2,-1.313659668E0,-3.837738037E-1,9.852249146E0
1.740061556E2,-1.766159058E0,3.282165527E-2,9.720565796E0
1.741063753E2,-4.062500000E-1,-3.430786133E-1,9.485931396E0
1.742065645E2,-1.778121948E0,-4.388427734E-1,1.070698547E1
1.743067842E2,-1.129302979E0,-1.994171143E-1,8.700637817E0
1.744069735E2,-2.793579102E-1,-6.614990234E-1,1.052262878E1
1.745071932E2,-1.476455688E0,-4.627838135E-1,9.610427856E0
1.746073824E2,-6.121520996E-1,-3.981323242E-1,9.663101196E0
1.747076021E2,-1.239425659E0,-3.478546143E-1,9.883377075E0
1.748078218E2,-1.023956299E0,-1.347808838E-1,9.177078247E0
1.749080111E2,-6.528472900E-1,-4.627838135E-1,1.009884644E1
1.750082308E2,5.873413086E-1,-7.476959229E-1,9.576919556E0
1.751084200E2,-1.332809448E0,-6.773376465E-2,1.016828918E1
1.752086397E2,3.168029785E-1,-4.125061035E-1,9.050186157E0
1.753088289E2,-2.314758301E-1,-1.587219238E-1,1.003181458E1
1.754090792E2,8.219757080E-1,-8.506469727E-1,9.210601807E0
1.755092379E2,-1.071838379E0,-3.502502441E-1,1.075007629E1
1.756094576E2,8.147888184E-1,-2.425079346E-1,9.033432007E0
1.757096773E2,1.611785889E-1,-1.323852539E-1,1.006533813E1
1.758098970E2,5.897369385E-1,-8.769836426E-1,9.813934326E0
1.759100862E2,-1.191543579E0,-4.077148438E-1,1.132707214E1
1.760102755E2,6.543731689E-1,-2.951812744E-1,9.227355957E0
1.761104952E2,-2.317810059E-2,5.619354248E-1,9.189056396E0
1.762106844E2,7.477569580E-1,-9.631652832E-1,9.823516846E0
1.763109041E2,-7.965087891E-1,-3.430786133E-1,1.098231506E1
1.764111238E2,8.866119385E-1,-8.554382324E-1,9.299194336E0
1.765113131E2,3.359527588E-1,2.803039551E-2,9.450027466E0
1.766115328E2,9.225311279E-1,-6.423492432E-1,9.423690796E0
1.767117220E2,-3.392181396E-1,-1.090057373E0,1.104934692E1
1.768119417E2,4.221496582E-1,-5.058746338E-1,9.339889526E0
1.769121309E2,-2.649993896E-1,1.605224609E-2,9.689437866E0
1.770123507E2,8.411254883E-1,-8.291015625E-1,1.000308228E1
1.771125704E2,4.145812988E-2,-7.716369629E-1,1.011082458E1
1.772127596E2,-1.548614502E-1,-4.149017334E-1,8.726974487E0
1.773130098E2,-4.232788086E-2,-4.436340332E-1,1.015870667E1
1.774131990E2,-2.626037598E-1,-1.037384033E0,1.013476562E1
1.775133883E2,8.578948975E-1,-5.346069336E-1,9.157928467E0
1.776135775E2,-2.961120605E-1,-5.577087402E-2,9.488327026E0
1.777137972E2,7.764892578E-1,-6.614990234E-1,9.926467896E0
1.778140169E2,1.994781494E-1,-4.651794434E-1,9.605651855E0
1.779142061E2,1.212234497E0,-5.346069336E-1,9.004699707E0
1.780144258E2,2.306060791E-1,2.291412354E-1,9.418899536E0
1.781146151E2,2.856750488E-1,-2.137908936E-1,9.303970337E0
1.782148348E2,1.539916992E-1,-6.327667236E-1,1.000308228E1
1.783150240E2,6.208648682E-1,-4.508056641E-1,9.220184326E0
1.784152437E2,-3.942871094E-1,-4.172973633E-1,1.054896545E1
1.785154329E2,9.440765381E-1,-6.375579834E-1,8.882598877E0
1.786156527E2,-1.572570801E-1,-6.294250488E-2,9.830703735E0
1.787158724E2,6.998748779E-1,-9.799346924E-1,9.715774536E0
1.788160616E2,-1.028747559E0,-5.346069336E-1,1.009645081E1
1.789162813E2,8.626708984E-1,-4.699707031E-1,9.354248047E0
1.790164705E2,8.123931885E-1,-1.826629639E-1,1.024729919E1
1.791166903E2,1.327148438E0,-3.311004639E-1,9.663101196E0
1.792169100E2,-5.714569092E-1,-9.176788330E-1,1.137257385E1
1.793170992E2,3.311614990E-1,-4.364471436E-1,9.033432007E0
1.794172884E2,-4.711914062E-2,-2.042083740E-1,9.404525757E0
1.795175081E2,-2.242889404E-1,-6.208038330E-1,9.770843506E0
1.796177279E2,1.228637695E-1,-4.268646240E-1,9.840270996E0
1.797179476E2,1.204681396E-1,-4.029235840E-1,9.598464966E0
1.798181368E2,1.372375488E-1,-1.515350342E-1,9.512268066E0
1.799183565E2,1.276550293E-1,-2.688446045E-1,9.373413086E0
1.800185457E2,1.875152588E-1,-5.872802734E-1,9.691833496E0
1.801187654E2,3.503112793E-1,-5.753021240E-1,1.018504333E1
1.802189547E2,1.085052490E-1,-3.670196533E-1,9.854644775E0
1.803191744E2,-1.838684082E-2,-1.395721436E-1,9.785217285E0
1.804193636E2,7.019042969E-2,-2.305450439E-1,9.610427856E0
1.805195833E2,2.306060791E-1,-4.819335938E-1,9.457199097E0
1.806197725E2,1.803283691E-1,-7.596588135E-1,1.006054688E1
1.807199923E2,2.090606689E-1,-8.338775635E-1,1.039573669E1
1.808201815E2,1.492004395E-1,-5.106658936E-1,9.921676636E0
1.809204012E2,1.228637695E-1,-1.060485840E-1,9.375808716E0
1.810206209E2,4.580535889E-1,-2.760314941E-1,9.402145386E0
1.811208101E2,3.359527588E-1,-4.795379639E-1,9.165115356E0
1.812210299E2,1.204681396E-1,-6.567077637E-1,1.023532104E1
1.813212191E2,2.904663086E-1,-3.526458740E-1,9.986328125E0
1.814214388E2,3.263702393E-1,-4.077148438E-1,9.050186157E0
1.815216280E2,-2.745666504E-1,-1.946258545E-1,9.778030396E0
1.816218477E2,2.042694092E-1,-5.370025635E-1,9.751693726E0
1.817220674E2,1.300506592E-1,-7.381134033E-1,9.653533936E0
1.818222567E2,3.000335693E-1,-5.106658936E-1,9.945617676E0
1.819224764E2,3.814392090E-1,-7.429046631E-1,1.009167480E1
1.820226656E2,3.670806885E-1,-4.986877441E-1,9.811553955E0
1.821228853E2,-1.381072998E-1,-4.771423340E-1,9.940841675E0
1.822230745E2,3.668212891E-2,-1.371765137E-1,9.461990356E0
1.823232943E2,3.191986084E-1,-1.706848145E-1,9.270462036E0
1.824234835E2,4.245300293E-1,-1.491394043E-1,9.054977417E0
1.825237032E2,2.521514893E-1,-4.986877441E-1,9.821121216E0
1.826239229E2,4.173583984E-1,-5.226440430E-1,9.689437866E0
1.827241121E2,2.090606689E-1,-5.082702637E-1,9.952804565E0
1.828243319E2,-2.889404297E-1,-2.616729736E-1,9.998291016E0
1.829245516E2,-3.036499023E-2,-1.994171143E-1,9.464385986E0
1.830247408E2,-1.740112305E-1,2.147827148E-1,8.887390137E0
1.831249300E2,5.343627930E-2,-9.886169434E-2,9.785217285E0
1.832251497E2,5.490417480E-1,-4.172973633E-1,9.715774536E0
1.833253389E2,6.017150879E-1,-2.209625244E-1,9.423690796E0
1.834255692E2,1.875152588E-1,-5.154571533E-1,9.830703735E0
1.835257889E2,1.515960693E-1,-4.316558838E-1,1.005335999E1
1.836259781E2,1.851196289E-1,-3.095550537E-1,9.576919556E0
1.837261978E2,-1.093750000E-1,-2.401275635E-1,9.536209106E0
1.838263870E2,1.180725098E-1,-1.946258545E-1,9.466781616E0
1.839266067E2,1.420288086E-1,-1.299896240E-1,9.272857666E0
1.840268265E2,3.048248291E-1,-4.867248535E-1,9.457199097E0
1.841270462E2,1.013183594E-1,-3.741912842E-1,9.421295166E0
1.842272659E2,1.779327393E-1,-8.689880371E-2,9.380584717E0
1.843274246E2,3.287658691E-1,-2.928009033E-1,9.897735596E0
1.844276443E2,2.210235596E-1,-8.210754395E-2,1.027124023E1
1.845278336E2,5.274810791E-1,-5.441894531E-1,9.433258057E0
1.846280533E2,1.827239990E-1,-6.016387939E-1,9.926467896E0
1.847282425E2,6.543731689E-1,-6.184082031E-1,9.588882446E0
1.848284622E2,2.425842285E-1,-3.358917236E-1,9.732543945E0
1.849286819E2,3.742523193E-1,-3.741912842E-1,9.368621826E0
1.850288712E2,-3.224487305E-1,-1.132354736E-1,9.584091187E0
1.851290909E2,1.683502197E-1,-1.443481445E-1,9.600860596E0
1.852292801E2,-5.191040039E-2,-4.436340332E-1,9.732543945E0
1.853294998E2,4.145812988E-2,-3.662109375E-2,9.442840576E0
1.854296890E2,2.425842285E-1,-5.800933838E-1,9.361434937E0
1.855299088E2,2.066650391E-1,-3.263092041E-1,9.368621826E0
1.856300980E2,-1.476745605E-1,-3.382873535E-1,9.734939575E0
1.857303177E2,1.827239990E-1,-4.077148438E-1,9.912109375E0
1.858305374E2,2.569427490E-1,3.999328613E-2,9.608047485E0
1.859307877E2,1.372375488E-1,-1.611175537E-1,9.857040405E0
1.860309463E2,3.428649902E-2,5.676269531E-2,9.543395996E0
1.861311356E2,3.862304688E-1,-2.568817139E-1,9.277633667E0
1.862313553E2,4.891815186E-1,-5.537567139E-1,9.409317017E0
1.863315750E2,5.538177490E-1,-3.813781738E-1,9.136383057E0
1.864317642E2,3.239746094E-1,-4.244689941E-1,9.696624756E0
1.865319534E2,2.641296387E-1,-6.327667236E-1,9.301589966E0
1.866321732E2,1.061096191E-1,-4.627838135E-1,1.037419128E1
1.867323929E2,3.263702393E-1,-4.819335938E-1,1.014912415E1
1.868325821E2,3.503112793E-1,-2.928009033E-1,9.438049316E0
1.869328018E2,1.515960693E-1,-4.149017334E-1,9.892944336E0
1.870329910E2,3.407440186E-1,-6.543121338E-1,1.007011414E1
1.871332108E2,4.795989990E-1,-5.561523438E-1,9.842666626E0
1.872334000E2,4.864501953E-2,-4.579925537E-1,9.519454956E0
1.873336197E2,1.109008789E-1,-4.508056641E-1,9.940841675E0
1.874338394E2,-1.021881104E-1,-5.202484131E-1,9.974349976E0
1.875340286E2,1.372375488E-1,-4.388427734E-1,1.009167480E1
1.876342484E2,3.311614990E-1,-2.784271240E-1,9.840270996E0
1.877344376E2,3.215789795E-1,-1.778717041E-1,9.926467896E0
1.878346573E2,1.085052490E-1,-4.843292236E-1,1.037179565E1
1.879348770E2,4.365081787E-1,-4.651794434E-1,9.452423096E0
1.880350662E2,3.263702393E-1,-6.591033936E-1,9.928863525E0
1.881352554E2,7.597198486E-1,-5.944671631E-1,9.801971436E0
1.882354752E2,2.210235596E-1,-4.508056641E-1,9.531433105E0
1.883356644E2,2.808837891E-1,-8.769836426E-1,9.869003296E0
1.884358841E2,2.353973389E-1,-8.267059326E-1,9.531433105E0
1.885361038E2,7.549438477E-1,-7.165679932E-1,9.837890625E0
1.886362930E2,3.239746094E-1,-3.574371338E-1,9.433258057E0
1.887365128E2,5.104064941E-2,-4.460296631E-1,9.493118286E0
1.888367325E2,5.729827881E-1,-6.351623535E-1,9.792388916E0
1.889369217E2,5.227050781E-1,-6.471405029E-1,9.679870605E0
1.890371414E2,4.843902588E-1,-5.489654541E-1,9.294403076E0
1.891373306E2,4.867858887E-1,-6.806488037E-1,9.574523926E0
1.892375198E2,2.928619385E-1,-6.950225830E-1,9.734939575E0
1.893377396E2,1.180725098E-1,-1.658935547E-1,9.703811646E0
1.894379593E2,1.276550293E-1,-1.946258545E-1,9.373413086E0
1.895381485E2,1.659698486E-1,-2.784271240E-1,9.531433105E0
1.896383682E2,-1.261291504E-1,-4.627838135E-1,9.955200195E0
1.897385574E2,6.301879883E-2,8.789062500E-2,9.203414917E0
1.898387772E2,-7.345581055E-2,-6.064300537E-1,9.873794556E0
1.899389969E2,-2.458343506E-1,-5.800933838E-1,9.502700806E0
1.900391861E2,-3.753662109E-2,-7.357177734E-1,9.303970337E0
1.901394058E2,1.751708984E-2,-9.607696533E-1,9.636764526E0
1.902395950E2,3.670806885E-1,-8.793792725E-1,9.713378906E0
1.903398148E2,5.583190918E-2,-8.530426025E-1,9.677474976E0
1.904400040E2,3.263702393E-1,-1.051757812E0,9.804367065E0
1.905402237E2,3.766479492E-1,-8.099365234E-1,9.684661865E0
1.906404434E2,3.455352783E-1,-6.854400635E-1,9.043014526E0
1.907406326E2,2.880706787E-1,-8.961334229E-1,9.564941406E0
1.908408524E2,1.444091797E-1,-8.841552734E-1,9.581710815E0
1.909410416E2,1.034545898E-2,-4.843292236E-1,9.126800537E0
1.910412613E2,7.949829102E-3,-6.327667236E-1,9.806762695E0
1.911414505E2,-7.824707031E-2,-9.942932129E-1,1.013476562E1
1.912416702E2,9.652709961E-2,-8.769836426E-1,9.229751587E0
1.913418594E2,-8.782958984E-2,-1.063720703E0,9.533813477E0
1.914420792E2,3.096160889E-1,-1.078094482E0,9.483535767E0
1.915422684E2,2.330017090E-1,-1.027816772E0,9.560150146E0
1.916424881E2,2.928619385E-1,-9.703521729E-1,9.617614746E0
1.917427078E2,1.827239990E-1,-8.267059326E-1,9.854644775E0
1.918428970E2,9.173583984E-2,-9.990844727E-1,9.938446045E0
1.919431168E2,-6.626892090E-2,-8.674011230E-1,9.706207275E0
1.920433060E2,-5.191040039E-2,-6.974182129E-1,9.845062256E0
1.921435257E2,1.851196289E-1,-8.267059326E-1,9.600860596E0
1.922437149E2,2.090606689E-1,-7.979736328E-1,9.421295166E0
1.923439346E2,3.335571289E-1,-1.049362183E0,9.610427856E0
1.924441544E2,1.683502197E-1,-9.535980225E-1,9.969558716E0
1.925443436E2,2.736968994E-1,-8.913421631E-1,9.646347046E0
1.926445328E2,1.994781494E-1,-5.346069336E-1,9.608047485E0
1.927447525E2,2.449645996E-1,-6.638946533E-1,9.512268066E0
1.928449722E2,-1.859893799E-1,-7.500915527E-1,9.112442017E0
1.929451920E2,6.280517578E-1,-6.926269531E-1,9.282424927E0
1.930453812E2,3.622894287E-1,-6.830444336E-1,9.426086426E0
1.931456009E2,3.479156494E-1,-9.871063232E-1,1.008688354E1
1.932458206E2,4.412994385E-1,-9.631652832E-1,9.344680786E0
1.933460403E2,-1.069793701E-1,-8.937377930E-1,9.497909546E0
1.934462004E2,1.420288086E-1,-8.362731934E-1,9.636764526E0
1.935464201E2,5.583190918E-2,-7.979736328E-1,9.399749756E0
1.936466093E2,2.066650391E-1,-8.219146729E-1,9.543395996E0
1.937467985E2,2.832794189E-1,-9.128875732E-1,9.543395996E0
1.938469877E2,4.724273682E-1,-7.165679932E-1,9.054977417E0
1.939472380E2,2.377929688E-1,-7.405090332E-1,9.574523926E0
1.940473967E2,7.737731934E-2,-5.824890137E-1,9.809158325E0
1.941476164E2,1.539916992E-1,-1.080490112E0,1.010603333E1
1.942478056E2,6.062316895E-2,-1.058944702E0,9.756484985E0
1.943480253E2,6.376190186E-1,-1.037384033E0,9.600860596E0
1.944482450E2,-1.788024902E-1,-9.512023926E-1,9.287216187E0
1.945484343E2,2.473602295E-1,-9.033203125E-1,9.141174316E0
1.946486540E2,-1.811981201E-1,-1.082885742E0,1.010124207E1
1.947488737E2,-7.345581055E-2,-8.985290527E-1,9.663101196E0
1.948490629E2,-2.796936035E-2,-7.261505127E-1,9.567337036E0
1.949492826E2,1.587829590E-1,-8.602142334E-1,9.916885376E0
1.950494718E2,4.532623291E-1,-6.351623535E-1,9.880981445E0
1.951496916E2,2.497558594E-1,-5.681304932E-1,9.627197266E0
1.952498808E2,-4.711914062E-2,-7.022094727E-1,9.744506836E0
1.953501005E2,-9.260559082E-2,-6.399536133E-1,9.481140137E0
1.954502897E2,2.545471191E-1,-6.064300537E-1,9.646347046E0
1.955505094E2,3.072204590E-1,-4.627838135E-1,9.541000366E0
1.956507292E2,2.090606689E-1,-4.196929932E-1,9.900131226E0
1.957509184E2,2.425842285E-1,-3.502502441E-1,1.017546082E1
1.958511381E2,4.624938965E-2,-3.430786133E-1,9.904922485E0
1.959513578E2,3.428649902E-2,-8.219146729E-1,1.042924500E1
1.960515470E2,-6.423950195E-3,-6.854400635E-1,9.651138306E0
1.961517363E2,7.019042969E-2,-6.375579834E-1,9.366226196E0
1.962519560E2,2.042694092E-1,-6.878356934E-1,9.789993286E0
1.963521452E2,1.875152588E-1,-9.679565430E-1,9.950408936E0
1.964523649E2,1.779327393E-1,-9.416198730E-1,9.761276245E0
1.965525846E2,3.790435791E-1,-9.895019531E-1,9.227355957E0
1.966527739E2,3.215789795E-1,-8.578186035E-1,9.402145386E0
1.967529631E2,8.456420898E-2,-7.620544434E-1,9.354248047E0
1.968531828E2,-1.476745605E-1,-8.841552734E-1,9.426086426E0
1.969534025E2,1.300506592E-1,-1.001480103E0,9.871398926E0
1.970535917E2,4.624938965E-2,-1.360610962E0,1.047952271E1
1.971538114E2,4.963684082E-1,-9.535980225E-1,9.833099365E0
1.972540007E2,-1.404876709E-1,-9.631652832E-1,1.019940186E1
1.973542204E2,1.515960693E-1,-7.979736328E-1,9.483535767E0
1.974544401E2,2.425842285E-1,-6.902313232E-1,9.244125366E0
1.975546293E2,6.301879883E-2,-7.476959229E-1,9.907318115E0
1.976548490E2,4.077758789E-1,-8.697967529E-1,1.017068481E1
1.977550383E2,5.274810791E-1,-3.287048340E-1,9.351867676E0
1.978552580E2,2.042694092E-1,-5.513610840E-1,9.447631836E0
1.979554777E2,1.731414795E-1,-6.638946533E-1,9.373413086E0
1.980556669E2,4.867858887E-1,-4.125061035E-1,9.471572876E0
1.981558866E2,1.512145996E-2,-4.843292236E-1,9.306365967E0
1.982560759E2,4.385375977E-2,-7.716369629E-1,9.758880615E0
1.983562956E2,1.851196289E-1,-6.231994629E-1,9.778030396E0
1.984564848E2,-2.649993896E-1,-8.865509033E-1,1.029278564E1
1.985567045E2,4.341125488E-1,-7.381134033E-1,9.567337036E0
1.986569242E2,3.428649902E-2,-6.926269531E-1,9.921676636E0
1.987571135E2,2.401885986E-1,-9.176788330E-1,9.667892456E0
1.988573027E2,1.420288086E-1,-6.878356934E-1,9.679870605E0
1.989575224E2,1.827239990E-1,-6.088256836E-1,9.773239136E0
1.990577421E2,4.385375977E-2,-4.675750732E-1,1.059445190E1
1.991579313E2,1.994781494E-1,-6.255950928E-1,1.008209229E1
1.992581510E2,1.156921387E-1,-3.406829834E-1,1.016828918E1
1.993583708E2,3.455352783E-1,-3.358917236E-1,9.416503906E0
1.994585600E2,2.162475586E-1,-5.657348633E-1,9.792388916E0
1.995587797E2,3.718719482E-1,-6.734771729E-1,9.311157227E0
1.996589689E2,5.583190918E-2,-6.926269531E-1,9.806762695E0
1.997591886E2,1.512145996E-2,-6.926269531E-1,9.382980347E0
1.998594084E2,1.037139893E-1,-1.154708862E0,1.011801147E1
1.999595976E2,9.652709961E-2,-5.106658936E-1,9.430862427E0
2.000597868E2,3.096160889E-1,-5.250244141E-1,9.634368896E0
2.001600065E2,2.138519287E-1,-3.813781738E-1,9.399749756E0
2.002602262E2,-7.585144043E-2,-7.069854736E-1,9.813934326E0
2.003604155E2,4.317169189E-1,-3.646240234E-1,9.239334106E0
2.004606352E2,2.497558594E-1,-3.717956543E-1,9.263275146E0
2.005608244E2,4.700317383E-1,-2.712402344E-1,9.658325195E0
2.006610441E2,5.873413086E-1,-3.071594238E-1,1.000308228E1
2.007612333E2,6.352233887E-1,-1.515350342E-1,9.811553955E0
2.008614531E2,4.628448486E-1,-4.618835449E-2,9.497909546E0
2.009616728E2,4.700317383E-1,-1.802673340E-1,9.919281006E0
2.010618620E2,5.993194580E-1,-2.305450439E-1,9.203414917E0
2.011620817E2,4.460906982E-1,-8.210754395E-2,9.675079346E0
2.012622709E2,5.873413086E-1,-1.042175293E0,9.778030396E0
2.013624906E2,4.197540283E-1,-4.986877441E-1,9.476364136E0
2.014627104E2,2.521514893E-1,-6.662902832E-1,1.047474670E1
2.015628996E2,5.873413086E-1,-7.117767334E-1,9.962387085E0
2.016631193E2,3.814392090E-1,-2.784271240E-1,9.581710815E0
2.017633085E2,1.300506592E-1,-1.635131836E-1,9.773239136E0
2.018635282E2,5.921325684E-1,-3.263092041E-1,1.006773376E1
2.019637480E2,7.094421387E-1,-3.311004639E-1,9.825912476E0
2.020639372E2,7.142333984E-1,-2.353363037E-1,9.900131226E0
2.021641569E2,7.788848877E-1,-4.196929932E-1,9.993499756E0
2.022643461E2,7.788848877E-1,-2.616729736E-1,9.011886597E0
2.023645658E2,6.779479980E-2,-1.180114746E-1,1.024967957E1
2.024647551E2,3.407440186E-1,-4.603881836E-1,1.030953979E1
2.025649748E2,3.215789795E-1,-6.040344238E-1,9.392562866E0
2.026651945E2,6.208648682E-1,-3.334960938E-1,9.426086426E0
2.027653837E2,4.341125488E-1,-3.694152832E-1,8.805984497E0
2.028656034E2,5.011444092E-1,-9.464111328E-1,9.837890625E0
2.029657927E2,6.256561279E-1,-5.776977539E-1,1.047714233E1
2.030660124E2,8.698577881E-1,-5.106658936E-1,9.754089355E0
2.031662016E2,4.939727783E-1,-4.053192139E-1,1.024729919E1
2.032664213E2,8.818359375E-1,-2.185668945E-1,8.992736816E0
2.033666410E2,4.987640381E-1,-4.029235840E-1,1.025447083E1
2.034668833E2,5.107269287E-1,-1.188232422E0,9.062164307E0
2.035671031E2,1.367858887E0,2.554779053E-1,8.798797607E0
2.036672923E2,8.602752686E-1,-7.644500732E-1,9.825912476E0
2.037675120E2,1.027877808E0,-3.741912842E-1,1.129116821E1
2.038677317E2,9.728088379E-1,5.619354248E-1,7.398193359E0
2.039679209E2,9.823913574E-1,-1.008666992E0,8.590499878E0
2.040681407E2,6.448059082E-1,-6.279754639E-1,1.001745605E1
2.041683299E2,5.322723389E-1,-5.824890137E-1,7.580154419E0
2.042685496E2,1.037445068E0,-2.353363037E-1,1.126004028E1
2.043687693E2,1.391799927E0,-4.268646240E-1,1.106611633E1
2.044689585E2,4.939727783E-1,-1.778717041E-1,9.385375977E0
2.045691477E2,-2.123260498E-1,-3.215179443E-1,9.536209106E0
2.046693675E2,2.473602295E-1,-6.136169434E-1,9.713378906E0
2.047695872E2,6.711425781E-1,-4.220733643E-1,9.722961426E0
2.048697764E2,5.418548584E-1,-4.867248535E-1,9.835494995E0
