"Time (s)","Acceleration x (m/s^2)","Acceleration y (m/s^2)","Acceleration z (m/s^2)"
0.000000000E0,5.634002686E-1,2.530822754E-1,9.663101196E0
1.001892090E-1,9.632263184E-1,3.632202148E-1,9.239334106E0
2.003784180E-1,1.011123657E0,3.368835449E-1,9.880981445E0
3.005371090E-1,8.937988281E-1,2.482910156E-1,9.768447876E0
4.006958010E-1,6.567687988E-1,2.530822754E-1,9.823516846E0
5.008850100E-1,8.339385986E-1,3.225097656E-1,9.210601807E0
6.010742190E-1,9.584503174E-1,2.770233154E-1,9.943222046E0
7.012329100E-1,9.392852783E-1,2.506866455E-1,9.861831665E0
8.014221190E-1,4.987640381E-1,3.081512451E-1,9.550582886E0
9.015808100E-1,1.118850708E0,4.254608154E-1,9.368621826E0
1.001770019E0,9.608306885E-1,2.626647949E-1,9.914505005E0
1.101928711E0,8.267669678E-1,2.411193848E-1,9.744506836E0
1.202117920E0,5.466461182E-1,2.315368652E-1,9.507476807E0
1.302276611E0,1.063781738E0,3.560333252E-1,9.356643677E0
1.402465820E0,9.392852783E-1,1.860504150E-1,1.005096436E1
1.502624512E0,7.597198486E-1,2.746276855E-1,9.730148315E0
1.602813721E0,6.663513184E-1,2.315368652E-1,9.615219116E0
1.702972412E0,9.129486084E-1,3.249053955E-1,9.315948486E0
1.803161621E0,1.006332397E0,2.985687256E-1,9.895339966E0
1.903320312E0,8.602752686E-1,2.866058350E-1,9.770843506E0
2.003509521E0,5.442504883E-1,2.985687256E-1,9.428482056E0
2.103668213E0,1.073364258E0,4.517974854E-1,9.423690796E0
2.203857422E0,9.560546875E-1,1.812591553E-1,9.991119385E0
2.304016113E0,7.956390381E-1,3.033599854E-1,9.718170166E0
2.404205322E0,6.352233887E-1,3.105468750E-1,9.603256226E0
2.504364014E0,1.051818848E0,3.273010254E-1,9.308761597E0
2.604553223E0,9.871673584E-1,2.602691650E-1,1.003181458E1
2.704742431E0,7.573242188E-1,2.147827148E-1,9.694229126E0
2.804901123E0,6.208648682E-1,3.057556152E-1,9.447631836E0
2.905090332E0,1.152374268E0,3.440704346E-1,9.469177246E0
3.005279541E0,9.512634277E-1,1.453399658E-1,9.914505005E0
3.105438232E0,8.291625977E-1,2.219543457E-1,9.703811646E0
3.205596924E0,5.777587891E-1,3.392791748E-1,9.507476807E0
3.305786133E0,1.037445068E0,3.344879150E-1,9.426086426E0
3.405944824E0,9.608306885E-1,3.033599854E-1,1.006773376E1
3.506134033E0,5.825500488E-1,2.315368652E-1,9.617614746E0
3.606292724E0,7.645111084E-1,2.913970947E-1,9.320739746E0
3.706481933E0,1.090118408E0,3.464508057E-1,9.617614746E0
3.806671142E0,9.321136475E-1,1.477355957E-1,9.890548706E0
3.906829834E0,6.950836182E-1,2.674560547E-1,9.763656616E0
4.007019043E0,7.645111084E-1,3.392791748E-1,9.241729736E0
4.107177734E0,1.094909668E0,2.794189453E-1,9.928863525E0
4.207366943E0,8.890075684E-1,2.052001953E-1,9.847457886E0
4.307525635E0,6.591644287E-1,2.770233154E-1,9.706207275E0
4.407714844E0,7.022705078E-1,3.009643555E-1,9.445236206E0
4.507873535E0,1.006332397E0,3.344879150E-1,9.588882446E0
4.608062744E0,9.368896484E-1,2.818145752E-1,9.979141235E0
4.708251953E0,5.657958984E-1,2.171783447E-1,9.612823486E0
4.808410644E0,1.008728027E0,3.440704346E-1,9.232147217E0
4.908599853E0,1.027877808E0,2.482910156E-1,9.957595825E0
5.008758545E0,8.746490479E-1,2.123870850E-1,9.778030396E0
5.108917236E0,6.831054688E-1,2.578735352E-1,9.679870605E0
5.209106445E0,8.052215576E-1,3.440704346E-1,9.260879517E0
5.309265137E0,1.042236328E0,2.842102051E-1,9.888168335E0
5.409454346E0,8.578948975E-1,2.506866455E-1,9.837890625E0
5.509643555E0,5.921325684E-1,2.147827148E-1,9.608047485E0
5.609802246E0,9.536590576E-1,4.182891846E-1,9.296798706E0
5.709960937E0,1.032669067E0,2.794189453E-1,1.003181458E1
5.810150146E0,8.914031982E-1,2.674560547E-1,9.785217285E0
5.910339355E0,6.208648682E-1,2.578735352E-1,9.641555786E0
6.010498047E0,1.092514038E0,2.913970947E-1,9.284820557E0
6.110687256E0,9.321136475E-1,2.698364258E-1,1.007969666E1
6.210845947E0,7.693023682E-1,2.075958252E-1,9.593673706E0
6.311004639E0,6.088867188E-1,2.842102051E-1,9.519454956E0
6.411193848E0,1.075759888E0,3.727874756E-1,9.402145386E0
6.511383056E0,9.991455078E-1,1.836547852E-1,9.952804565E0
6.611541748E0,8.076019287E-1,2.890014648E-1,9.773239136E0
6.711730957E0,6.112823486E-1,2.866058350E-1,9.442840576E0
6.811889648E0,1.159561157E0,3.440704346E-1,9.469177246E0
6.912109375E0,8.650665283E-1,2.530822754E-1,9.945617676E0
7.012268066E0,7.501525879E-1,2.961730957E-1,9.694229126E0
7.112426758E0,6.352233887E-1,2.411193848E-1,9.622406006E0
7.212646484E0,9.991455078E-1,3.871612549E-1,9.349472046E0
7.312805176E0,9.728088379E-1,2.411193848E-1,1.009167480E1
7.412963867E0,7.573242188E-1,2.339324951E-1,9.691833496E0
7.513122558E0,6.663513184E-1,3.368835449E-1,9.320739746E0
7.613316188E0,1.219406128E0,3.440704346E-1,9.679870605E0
7.713474880E0,7.716979980E-1,2.985687256E-1,9.883377075E0
7.813664089E0,8.195800781E-1,2.458953857E-1,9.821121216E0
7.913822780E0,6.280517578E-1,1.884460449E-1,9.414108276E0
8.014011989E0,9.632263184E-1,3.895568848E-1,9.421295166E0
8.114170681E0,9.895629883E-1,2.842102051E-1,9.931259155E0
8.214359890E0,5.155181885E-1,3.296966553E-1,9.957595825E0
8.314518581E0,6.974792480E-1,2.985687256E-1,9.610427856E0
8.414707790E0,9.680175781E-1,4.158935547E-1,9.263275146E0
8.514866481E0,9.273223877E-1,2.530822754E-1,9.830703735E0
8.615055690E0,8.650665283E-1,1.884460449E-1,9.718170166E0
8.715214382E0,5.251007080E-1,3.344879150E-1,9.469177246E0
8.815403591E0,1.604873657E0,3.249053955E-1,9.526641846E0
8.915592800E0,1.176315308E0,1.142272949E-1,9.924072266E0
9.015751491E0,7.309875488E-1,4.957580566E-2,9.732543945E0
9.115940700E0,7.645111084E-1,2.291412354E-1,9.586486816E0
9.216099392E0,1.037445068E0,4.302520752E-1,9.461990356E0
9.316258083E0,8.387298584E-1,4.757385254E-1,1.009167480E1
9.416447292E0,5.873413086E-1,1.788635254E-1,9.701416016E0
9.516636501E0,1.166732788E0,2.147827148E-1,9.282424927E0
9.616795192E0,1.008728027E0,3.009643555E-1,9.689437866E0
9.716984401E0,7.381744385E-1,2.890014648E-1,9.885772705E0
9.817143093E0,5.203094482E-1,1.716766357E-1,9.713378906E0
9.917332302E0,9.464721680E-1,3.081512451E-1,9.258483887E0
1.001749099E1,1.126037598E0,2.291412354E-1,9.895339966E0
1.011768020E1,9.536590576E-1,1.190032959E-1,9.694229126E0
1.021786941E1,4.795989990E-1,1.860504150E-1,9.567337036E0
1.031802810E1,1.049423218E0,4.206848145E-1,9.366226196E0
1.041818679E1,1.135620117E0,3.584289551E-1,9.667892456E0
1.051840652E1,8.291625977E-1,2.147827148E-1,9.825912476E0
1.061859573E1,6.543731689E-1,1.549224854E-1,9.672683716E0
1.071872390E1,9.847869873E-1,3.416748047E-1,9.378204346E0
1.081891311E1,1.037445068E0,2.458953857E-1,1.005096436E1
1.091907180E1,8.291625977E-1,2.075958252E-1,9.679870605E0
1.101926101E1,5.274810791E-1,1.453399658E-1,9.605651855E0
1.111941970E1,1.073364258E0,4.206848145E-1,9.390167236E0
1.121960891E1,9.081726074E-1,-8.450317383E-2,8.643173218E0
1.131979812E1,1.693466187E0,-2.209625244E-1,9.907318115E0
1.141995681E1,5.825500488E-1,2.770233154E-1,9.682266235E0
1.152011551E1,8.890075684E-1,4.374389648E-1,9.277633667E0
1.162033523E1,8.650665283E-1,2.219543457E-1,9.813934326E0
1.172049392E1,7.645111084E-1,2.866058350E-1,9.701416016E0
1.182068313E1,6.472015381E-1,2.602691650E-1,9.689437866E0
1.192084182E1,1.044631958E0,3.153381348E-1,9.359039307E0
1.202100052E1,8.339385986E-1,2.482910156E-1,9.837890625E0
1.212118972E1,8.147888184E-1,2.123870850E-1,9.718170166E0
1.222137893E1,7.046661377E-1,2.028045654E-1,9.579315186E0
1.232153762E1,1.059005737E0,3.847656250E-1,9.394958496E0
1.242172683E1,8.028259277E-1,1.261901855E-1,9.854644775E0
1.252188552E1,8.507080078E-1,2.171783447E-1,9.744506836E0
1.262207473E1,6.472015381E-1,3.225097656E-1,9.749298096E0
1.272223342E1,9.680175781E-1,3.129425049E-1,9.394958496E0
1.282242263E1,8.243713379E-1,2.578735352E-1,9.869003296E0
1.292258133E1,7.669067383E-1,1.740722656E-1,9.818725586E0
1.302277053E1,6.902923584E-1,3.296966553E-1,9.433258057E0
1.312292923E1,9.943542480E-1,4.661712646E-1,9.538604736E0
1.322311844E1,8.722534180E-1,1.070404053E-1,9.957595825E0
1.332327713E1,7.740936279E-1,2.339324951E-1,9.737319946E0
1.342346634E1,7.573242188E-1,2.554779053E-1,9.483535767E0
1.352365554E1,1.032669067E0,2.411193848E-1,9.555374146E0
1.362381424E1,8.291625977E-1,2.602691650E-1,9.928863525E0
1.372400344E1,7.621154785E-1,2.267456055E-1,9.660705566E0
1.382416214E1,7.214202881E-1,2.482910156E-1,9.531433105E0
1.392435135E1,9.823913574E-1,4.039154053E-1,9.390167236E0
1.402451004E1,8.794403076E-1,1.980133057E-1,9.919281006E0
1.412469924E1,8.531036377E-1,2.626647949E-1,9.852249146E0
1.422485794E1,8.578948975E-1,2.770233154E-1,9.495513916E0
1.432504715E1,8.698577881E-1,2.890014648E-1,9.509872437E0
1.442523635E1,9.033813477E-1,1.932220459E-1,9.885772705E0
1.452539505E1,7.764892578E-1,1.692810059E-1,9.845062256E0
1.462558426E1,6.663513184E-1,2.818145752E-1,9.538604736E0
1.472574295E1,9.464721680E-1,3.368835449E-1,9.359039307E0
1.482593216E1,1.018295288E0,1.788635254E-1,9.880981445E0
1.492609085E1,7.094421387E-1,2.052001953E-1,9.799575806E0
1.502628006E1,1.001541138E0,3.464508057E-1,9.244125366E0
1.512643875E1,9.967498779E-1,1.956176758E-1,9.670288086E0
1.522659744E1,9.656219482E-1,7.830810547E-2,9.763656616E0
1.532678665E1,7.477569580E-1,1.836547852E-1,9.749298096E0
1.542697586E1,7.166290283E-1,3.392791748E-1,9.552978516E0
1.552713455E1,9.704132080E-1,3.009643555E-1,9.545791626E0
1.562732376E1,9.153442383E-1,1.213989258E-1,9.895339966E0
1.572748245E1,7.453613281E-1,1.764678955E-1,9.825912476E0
1.582767166E1,7.501525879E-1,3.320922852E-1,9.495513916E0
1.592783035E1,9.871673584E-1,3.129425049E-1,9.485931396E0
1.602801956E1,8.890075684E-1,2.075958252E-1,9.919281006E0
1.612817825E1,7.262115479E-1,2.075958252E-1,9.799575806E0
1.622836746E1,8.195800781E-1,2.913970947E-1,9.359039307E0
1.632858718E1,9.895629883E-1,1.453399658E-1,9.751693726E0
1.642871536E1,9.536590576E-1,1.884460449E-1,9.859436035E0
1.652887405E1,7.070465088E-1,2.243499756E-1,9.727752686E0
1.662906326E1,7.812805176E-1,3.560333252E-1,9.507476807E0
1.672922195E1,9.464721680E-1,3.225097656E-1,9.531433105E0
1.682941116E1,9.608306885E-1,2.458953857E-1,9.924072266E0
1.692960037E1,7.118377686E-1,1.956176758E-1,9.684661865E0
1.702978958E1,8.243713379E-1,4.063110352E-1,9.303970337E0
1.712994827E1,1.032669067E0,1.908416748E-1,9.682266235E0
1.723010696E1,9.249267578E-1,1.764678955E-1,9.782821655E0
1.733032669E1,7.477569580E-1,2.578735352E-1,9.737319946E0
1.743048538E1,7.956390381E-1,4.087066650E-1,9.428482056E0
1.753061190E1,8.291625977E-1,1.597137451E-1,9.766052246E0
1.763080111E1,9.057769775E-1,1.908416748E-1,9.869003296E0
1.773095980E1,6.495971680E-1,2.937927246E-1,9.734939575E0
1.783114901E1,9.368896484E-1,3.775787354E-1,9.325531006E0
1.793130770E1,9.704132080E-1,1.166076660E-1,9.842666626E0
1.803149691E1,8.387298584E-1,2.482910156E-1,9.768447876E0
1.813165560E1,7.740936279E-1,2.435150146E-1,9.775634766E0
1.823187533E1,5.586090088E-1,8.013610840E-1,9.500305176E0
1.833200350E1,9.440765381E-1,3.081512451E-1,1.014912415E1
1.843219271E1,1.334335327E0,-5.337524414E-2,9.497909546E0
1.853235140E1,9.273223877E-1,-5.337524414E-2,9.581710815E0
1.863254061E1,9.919586182E-1,4.254608154E-1,9.327911377E0
1.873269930E1,7.740936279E-1,5.020751953E-1,9.845062256E0
1.883288851E1,6.878967285E-1,3.273010254E-1,9.916885376E0
1.893307772E1,7.190246582E-1,6.155395508E-2,9.488327026E0
1.903323641E1,1.415740967E0,3.632202148E-1,9.457199097E0
1.913339510E1,8.147888184E-1,2.267456055E-1,1.001266479E1
1.923358431E1,5.155181885E-1,4.637756348E-1,9.809158325E0
1.933377352E1,2.090606689E-1,4.589843750E-1,9.751693726E0
1.943393221E1,1.176315308E0,3.105468750E-1,9.382980347E0
1.953409090E1,1.123641968E0,1.525268555E-1,1.001745605E1
1.963428011E1,7.477569580E-1,1.716766357E-1,9.641555786E0
1.973446932E1,6.974792480E-1,2.387237549E-1,9.373413086E0
1.983462801E1,1.212234497E0,4.589843750E-1,9.502700806E0
1.993481722E1,8.961944580E-1,1.549224854E-1,9.979141235E0
2.003500643E1,6.328277588E-1,2.961730957E-1,9.768447876E0
2.013519564E1,6.184692383E-1,2.482910156E-1,9.502700806E0
2.023535433E1,1.176315308E0,3.727874756E-1,9.495513916E0
2.033551302E1,9.416809082E-1,2.195587158E-1,9.907318115E0
2.043567172E1,8.076019287E-1,3.999328613E-2,9.677474976E0
2.053586092E1,9.225311279E-1,1.333770752E-1,9.392562866E0
2.063605013E1,1.228988647E0,5.332031250E-1,9.356643677E0
2.073620882E1,7.645111084E-1,2.746276855E-1,1.000068665E1
2.083639803E1,7.238159180E-1,2.961730957E-1,9.663101196E0
2.093658724E1,7.693023682E-1,2.219543457E-1,9.402145386E0
2.103674593E1,1.188293457E0,3.105468750E-1,9.754089355E0
2.113690462E1,8.626708984E-1,2.506866455E-1,9.904922485E0
2.123709383E1,6.064910889E-1,1.980133057E-1,9.598464966E0
2.133725252E1,7.884521484E-1,2.458953857E-1,9.555374146E0
2.143744173E1,1.037445068E0,5.044708252E-1,9.459594727E0
2.153763094E1,8.602752686E-1,2.171783447E-1,1.009645081E1
2.163778964E1,7.046661377E-1,1.597137451E-1,9.612823486E0
2.173797884E1,7.645111084E-1,3.704071045E-1,9.299194336E0
2.183813754E1,1.039840698E0,4.015197754E-1,9.857040405E0
2.193832674E1,8.219757080E-1,2.052001953E-1,9.928863525E0
2.203851595E1,7.309875488E-1,1.501312256E-1,9.567337036E0
2.213867464E1,7.429656982E-1,2.722320557E-1,9.366226196E0
2.223886385E1,1.138015747E0,3.680114746E-1,9.708602905E0
2.233902255E1,9.321136475E-1,2.698364258E-1,1.003181458E1
2.243921175E1,5.634002686E-1,1.597137451E-1,9.315948486E0
2.253937045E1,1.133224487E0,5.667266846E-1,9.409317017E0
2.263955965E1,8.818359375E-1,2.315368652E-1,1.007250977E1
2.273971835E1,7.932434082E-1,2.339324951E-1,9.785217285E0
2.283987704E1,7.333831787E-1,1.860504150E-1,9.586486816E0
2.294006625E1,9.464721680E-1,3.680114746E-1,9.186660767E0
2.304025546E1,9.895629883E-1,3.033599854E-1,1.007969666E1
2.314041415E1,8.123931885E-1,1.812591553E-1,9.725357056E0
2.324060336E1,5.849456787E-1,1.788635254E-1,9.545791626E0
2.334076205E1,1.068572998E0,4.374389648E-1,9.327911377E0
2.344095126E1,1.070968628E0,2.746276855E-1,9.787612915E0
2.354110995E1,8.435211182E-1,2.243499756E-1,9.948013306E0
2.364129916E1,6.495971680E-1,1.501312256E-1,9.485931396E0
2.374145785E1,1.138015747E0,4.230804443E-1,9.215393066E0
2.384164706E1,8.866119385E-1,2.698364258E-1,1.025447083E1
2.394183627E1,7.333831787E-1,2.219543457E-1,9.639160156E0
2.404199496E1,6.232604980E-1,1.956176758E-1,9.651138306E0
2.414218417E1,9.105529785E-1,3.919525146E-1,9.359039307E0
2.424234286E1,1.030273438E0,3.225097656E-1,9.993499756E0
2.434253207E1,9.081726074E-1,2.004089355E-1,9.857040405E0
2.444269076E1,6.017150879E-1,2.004089355E-1,9.301589966E0
2.454287997E1,1.226593018E0,4.949035645E-1,9.620010376E0
2.464303866E1,8.315582275E-1,1.812591553E-1,1.004139709E1
2.474322787E1,8.842163086E-1,1.501312256E-1,9.485931396E0
2.484341708E1,8.219757080E-1,1.429443359E-1,9.543395996E0
2.494357577E1,1.157165527E0,3.512420654E-1,9.361434937E0
2.504373446E1,8.842163086E-1,2.267456055E-1,1.005096436E1
2.514392367E1,7.262115479E-1,1.333770752E-1,9.593673706E0
2.524411288E1,6.974792480E-1,1.956176758E-1,9.466781616E0
2.534430209E1,1.274475098E0,4.613800049E-1,9.466781616E0
2.544449130E1,8.531036377E-1,2.674560547E-1,9.883377075E0
2.554464999E1,6.783294678E-1,2.626647949E-1,9.739715576E0
2.564483920E1,6.256561279E-1,1.285858154E-1,9.394958496E0
2.574499789E1,1.288848877E0,3.991241455E-1,9.706207275E0
2.584515658E1,9.536590576E-1,1.812591553E-1,1.003660583E1
2.594534579E1,7.693023682E-1,1.621093750E-1,9.531433105E0
2.604550448E1,6.304321289E-1,2.554779053E-1,9.562545776E0
2.614566317E1,1.161956787E0,4.517974854E-1,9.517059326E0
2.624585238E1,9.177398682E-1,2.722320557E-1,1.005096436E1
2.634601107E1,7.238159180E-1,2.004089355E-1,9.529037476E0
2.644620028E1,6.855010986E-1,2.650604248E-1,9.325531006E0
2.654635897E1,1.178710938E0,4.422302246E-1,9.907318115E0
2.664654818E1,9.608306885E-1,1.429443359E-1,9.864227295E0
2.674673739E1,7.070465088E-1,2.458953857E-1,9.629592896E0
2.684689608E1,6.376190186E-1,2.243499756E-1,9.512268066E0
2.694705477E1,1.226593018E0,3.296966553E-1,9.593673706E0
2.704724398E1,9.345092773E-1,2.482910156E-1,1.002941895E1
2.714740267E1,9.943542480E-1,-1.745605469E-2,9.438049316E0
2.724759188E1,8.698577881E-1,2.818145752E-1,9.356643677E0
2.734781161E1,9.201354980E-1,4.541931152E-1,9.677474976E0
2.744797030E1,5.370635986E-1,2.866058350E-1,9.998291016E0
2.754818537E1,8.123931885E-1,1.788635254E-1,9.823516846E0
2.764834406E1,1.331939697E0,1.261901855E-1,9.809158325E0
2.774853327E1,1.123641968E0,1.740722656E-1,9.308761597E0
2.784869196E1,1.195465088E0,1.213989258E-1,1.017785645E1
2.794885065E1,7.645111084E-1,1.046447754E-1,9.737319946E0
2.804903986E1,7.573242188E-1,3.129425049E-1,9.105255127E0
2.814922907E1,1.566574097E0,1.860504150E-1,9.600860596E0
2.824938776E1,9.129486084E-1,2.075958252E-1,9.888168335E0
2.834957697E1,4.005889893E-1,4.446258545E-1,9.959991455E0
2.844973566E1,7.884521484E-1,2.746276855E-1,9.031036377E0
2.854995539E1,1.032669067E0,2.267456055E-1,1.005575562E1
2.865014460E1,6.424102783E-1,3.847656250E-1,9.871398926E0
2.875027277E1,4.819946289E-1,2.698364258E-1,9.476364136E0
2.885046198E1,9.943542480E-1,3.009643555E-1,9.327911377E0
2.895062067E1,9.536590576E-1,4.039154053E-1,9.646347046E0
2.905080988E1,9.249267578E-1,2.626647949E-1,9.967163086E0
2.915096857E1,6.304321289E-1,2.578735352E-1,9.722961426E0
2.925115778E1,1.092514038E0,3.273010254E-1,9.057373047E0
2.935134699E1,1.087738037E0,1.740722656E-1,1.008688354E1
2.945150568E1,7.597198486E-1,3.464508057E-1,9.833099365E0
2.955169489E1,6.950836182E-1,2.698364258E-1,9.758880615E0
2.965185358E1,9.321136475E-1,2.913970947E-1,9.212997437E0
2.975201227E1,1.063781738E0,2.291412354E-1,9.730148315E0
2.985220148E1,7.980346680E-1,3.296966553E-1,9.957595825E0
2.995239069E1,6.567687988E-1,1.716766357E-1,9.552978516E0
3.005254938E1,1.037445068E0,3.392791748E-1,9.201019287E0
3.015273859E1,1.059005737E0,3.057556152E-1,9.785217285E0
3.025292780E1,7.980346680E-1,2.866058350E-1,9.900131226E0
3.035308649E1,6.783294678E-1,2.961730957E-1,9.782821655E0
3.045324518E1,1.051818848E0,2.458953857E-1,9.023849487E0
3.055343439E1,1.011123657E0,3.632202148E-1,1.024011230E1
3.065362360E1,1.539916992E-1,5.667266846E-1,9.926467896E0
3.075378229E1,5.586090088E-1,2.554779053E-1,9.447631836E0
3.085394098E1,1.181106567E0,3.608245850E-1,9.095687866E0
3.095413019E1,9.680175781E-1,2.866058350E-1,9.878585815E0
3.105431940E1,6.160736084E-1,4.111022949E-1,9.976745605E0
3.115447809E1,8.961944580E-1,6.050262451E-1,9.912109375E0
3.125463678E1,1.147583008E0,3.177337646E-1,9.289611816E0
3.135485651E1,9.536590576E-1,1.022491455E-1,9.818725586E0
3.145501520E1,1.135620117E0,7.830810547E-2,9.768447876E0
3.155517389E1,6.783294678E-1,1.429443359E-1,9.600860596E0
3.165536310E1,9.033813477E-1,5.930633545E-1,9.378204346E0
3.175555231E1,9.297180176E-1,3.081512451E-1,1.010363770E1
3.185571100E1,8.914031982E-1,1.549224854E-1,9.521850586E0
3.195586969E1,7.190246582E-1,2.746276855E-1,9.421295166E0
3.205605890E1,1.051818848E0,4.972991943E-1,9.497909546E0
3.215624811E1,6.687469482E-1,3.105468750E-1,9.971954346E0
3.225640680E1,6.352233887E-1,3.057556152E-1,9.715774536E0
3.235659601E1,7.333831787E-1,1.453399658E-1,9.514663696E0
3.245678522E1,1.238571167E0,4.134979248E-1,9.438049316E0
3.255694391E1,9.752044678E-1,2.291412354E-1,1.002702332E1
3.265710260E1,6.017150879E-1,1.908416748E-1,9.531433105E0
3.275729181E1,7.908477783E-1,4.422302246E-1,9.409317017E0
3.285745050E1,1.087738037E0,3.751831055E-1,9.892944336E0
3.295763971E1,7.740936279E-1,1.884460449E-1,9.804367065E0
3.305779840E1,7.716979980E-1,1.453399658E-1,9.586486816E0
3.315798761E1,4.915771484E-1,3.512420654E-1,9.335098267E0
3.325817682E1,1.231384277E0,3.081512451E-1,9.596069336E0
3.335836603E1,8.004302979E-1,2.482910156E-1,9.936050415E0
3.345852472E1,8.554992676E-1,1.692810059E-1,9.567337036E0
3.355868341E1,7.046661377E-1,3.081512451E-1,9.529037476E0
3.365884210E1,1.104492188E0,4.111022949E-1,9.529037476E0
3.375906183E1,8.937988281E-1,1.932220459E-1,9.928863525E0
3.385922052E1,8.507080078E-1,1.956176758E-1,9.811553955E0
3.395940973E1,7.453613281E-1,2.602691650E-1,9.560150146E0
3.405956842E1,1.114074707E0,4.446258545E-1,9.529037476E0
3.415975763E1,9.368896484E-1,1.429443359E-1,9.849853516E0
3.425991632E1,7.453613281E-1,2.435150146E-1,9.672683716E0
3.436010553E1,6.663513184E-1,2.578735352E-1,9.517059326E0
3.446026422E1,1.109283447E0,3.895568848E-1,9.533813477E0
3.456045343E1,8.794403076E-1,2.698364258E-1,1.001745605E1
3.466061212E1,7.094421387E-1,1.980133057E-1,9.600860596E0
3.476080133E1,7.477569580E-1,2.961730957E-1,9.404525757E0
3.486096002E1,1.039840698E0,3.273010254E-1,9.727752686E0
3.496111872E1,9.177398682E-1,1.285858154E-1,9.797180176E0
3.506130792E1,7.022705078E-1,2.171783447E-1,9.718170166E0
3.516149713E1,7.788848877E-1,3.799743652E-1,9.512268066E0
3.526168634E1,1.039840698E0,3.201293945E-1,9.529037476E0
3.536184503E1,9.009857178E-1,1.908416748E-1,9.880981445E0
3.546200373E1,6.950836182E-1,2.099914551E-1,9.706207275E0
3.556219293E1,7.980346680E-1,2.961730957E-1,9.339889526E0
3.566238214E1,1.099700928E0,3.201293945E-1,9.643951416E0
3.576257135E1,8.387298584E-1,1.956176758E-1,9.876190186E0
3.586276056E1,6.878967285E-1,1.573181152E-1,9.696624756E0
3.596291925E1,7.740936279E-1,3.847656250E-1,9.356643677E0
3.606310846E1,1.020690918E0,2.435150146E-1,9.840270996E0
3.616323664E1,8.914031982E-1,2.435150146E-1,9.888168335E0
3.626345636E1,6.831054688E-1,2.291412354E-1,9.629592896E0
3.636358454E1,8.052215576E-1,3.488464355E-1,9.339889526E0
3.646374323E1,1.054214478E0,2.363281250E-1,9.768447876E0
3.656393244E1,8.794403076E-1,2.267456055E-1,9.912109375E0
3.666412164E1,6.591644287E-1,2.195587158E-1,9.588882446E0
3.676428034E1,9.440765381E-1,2.985687256E-1,9.294403076E0
3.686446955E1,9.991455078E-1,2.291412354E-1,9.880981445E0
3.696465876E1,8.507080078E-1,2.123870850E-1,9.837890625E0
3.706481745E1,6.472015381E-1,2.243499756E-1,9.586486816E0
3.716500666E1,9.440765381E-1,3.273010254E-1,9.354248047E0
3.726519586E1,1.126037598E0,4.182891846E-1,9.871398926E0
3.736535456E1,1.054214478E0,1.908416748E-1,9.787612915E0
3.746551325E1,1.008728027E0,1.932220459E-1,9.629592896E0
3.756561245E1,1.164352417E0,3.009643555E-1,9.667892456E0
3.766583217E1,1.152374268E0,2.818145752E-1,9.581710815E0
3.776599086E1,1.085342407E0,3.895568848E-1,9.679870605E0
3.786618007E1,1.097305298E0,3.368835449E-1,9.545791626E0
3.796633876E1,1.118850708E0,3.129425049E-1,9.538604736E0
3.806652797E1,1.030273438E0,2.530822754E-1,9.710998535E0
3.816668666E1,8.267669678E-1,9.745788574E-2,9.864227295E0
3.826687587E1,8.507080078E-1,2.674560547E-1,9.713378906E0
3.836703457E1,8.243713379E-1,2.075958252E-1,9.641555786E0
3.846719326E1,5.179138184E-1,2.530822754E-1,9.706207275E0
3.856738247E1,8.291625977E-1,3.320922852E-1,9.397354126E0
3.866757168E1,1.042236328E0,4.111022949E-1,9.493118286E0
3.876773037E1,8.554992676E-1,2.123870850E-1,9.940841675E0
3.886788906E1,8.387298584E-1,2.195587158E-1,9.722961426E0
3.896807827E1,5.681915283E-1,2.099914551E-1,9.667892456E0
3.906829799E1,9.440765381E-1,4.494018555E-1,9.359039307E0
3.916842617E1,1.085342407E0,2.147827148E-1,9.775634766E0
3.926861538E1,8.914031982E-1,2.818145752E-1,9.952804565E0
3.936877407E1,6.543731689E-1,2.482910156E-1,9.665496826E0
3.946896328E1,6.088867188E-1,2.794189453E-1,9.461990356E0
3.956915249E1,9.967498779E-1,2.937927246E-1,9.895339966E0
3.966934169E1,1.092514038E0,4.781341553E-1,9.852249146E0
3.976953090E1,6.759338379E-1,1.605224609E-2,9.382980347E0
3.986965908E1,1.049423218E0,5.355987549E-1,9.840270996E0
3.996981777E1,9.416809082E-1,3.632202148E-1,9.778030396E0
4.007000698E1,6.998748779E-1,5.676269531E-2,9.610427856E0
4.017016567E1,6.543731689E-1,3.521728516E-2,9.500305176E0
4.027038540E1,6.855010986E-1,7.112121582E-2,9.603256226E0
4.037054409E1,9.225311279E-1,2.722320557E-1,9.643951416E0
4.047073330E1,8.842163086E-1,3.799743652E-1,9.560150146E0
4.057092251E1,8.722534180E-1,1.980133057E-1,9.866607666E0
4.067111171E1,8.171844482E-1,2.890014648E-1,9.430862427E0
4.077127040E1,9.919586182E-1,2.363281250E-1,9.842666626E0
4.087142910E1,7.549438477E-1,2.794189453E-1,9.555374146E0
4.097161831E1,7.932434082E-1,2.004089355E-1,9.818725586E0
4.107174648E1,1.082946777E0,3.967437744E-1,9.557754517E0
4.117193569E1,7.501525879E-1,2.913970947E-1,9.653533936E0
4.127209438E1,6.759338379E-1,9.028625488E-2,9.718170166E0
4.137228359E1,9.967498779E-1,2.794189453E-1,9.737319946E0
4.147244228E1,9.416809082E-1,4.661712646E-1,9.713378906E0
4.157263149E1,8.076019287E-1,3.320922852E-1,9.679870605E0
4.167279018E1,7.501525879E-1,-1.323852539E-1,9.596069336E0
4.177300991E1,5.251007080E-1,4.278564453E-1,9.629592896E0
4.187319912E1,9.440765381E-1,5.499725342E-1,9.643951416E0
4.197338832E1,6.998748779E-1,-1.266479492E-2,9.588882446E0
4.207354702E1,5.227050781E-1,6.265869141E-1,9.591278076E0
4.217367519E1,1.054214478E0,4.134979248E-1,9.459594727E0
4.227386440E1,1.044631958E0,2.890014648E-1,9.600860596E0
4.237405361E1,1.013504028E0,3.344879150E-1,9.703811646E0
4.247421230E1,8.004302979E-1,4.111022949E-1,9.600860596E0
4.257440151E1,7.405700684E-1,1.022491455E-1,9.543395996E0
4.267456020E1,7.884521484E-1,1.046447754E-1,9.732543945E0
4.277474941E1,1.075759888E0,5.260162354E-1,9.651138306E0
4.287493862E1,6.567687988E-1,1.980133057E-1,9.737319946E0
4.297509731E1,8.626708984E-1,1.956176758E-1,9.512268066E0
4.307525600E1,1.051818848E0,3.727874756E-1,9.569732666E0
4.317544521E1,7.094421387E-1,6.155395508E-2,9.845062256E0
4.327563442E1,7.286071777E-1,2.291412354E-1,9.507476807E0
4.337579311E1,1.068572998E0,4.254608154E-1,9.318344116E0
4.347598232E1,9.608306885E-1,2.722320557E-1,9.974349976E0
4.357614101E1,6.807098389E-1,2.315368652E-1,9.531433105E0
4.367633022E1,1.106887817E0,3.727874756E-1,9.469177246E0
4.377651943E1,5.514221191E-1,1.692810059E-1,9.916885376E0
4.387667812E1,8.985900879E-1,4.733581543E-1,9.655929565E0
4.397683681E1,6.998748779E-1,1.501312256E-1,9.394958496E0
4.407702602E1,7.477569580E-1,5.715179443E-1,9.272857666E0
4.417718471E1,5.274810791E-1,3.286544800E0,9.938446045E0
4.427737392E1,1.114074707E0,4.675170898E0,9.787612915E0
4.437753261E1,5.822753906E-2,3.971282959E0,8.889785767E0
4.447772182E1,1.121246338E0,2.685592651E0,9.710998535E0
4.457788051E1,8.411254883E-1,3.573837280E0,1.000308228E1
4.467806972E1,6.424102783E-1,4.196334839E0,9.179473877E0
4.477828945E1,1.140396118E0,3.746231079E0,1.044601440E1
4.487841762E1,9.943542480E-1,3.612152100E0,9.962387085E0
4.497860683E1,9.728088379E-1,4.526733398E0,9.567337036E0
4.507879604E1,4.269256592E-1,4.208312988E0,9.284820557E0
4.517895473E1,1.346298218E0,3.185974121E0,1.007969666E1
4.527911342E1,5.227050781E-1,3.444549561E0,9.457199097E0
4.537930263E1,2.449645996E-1,3.480468750E0,9.667892456E0
4.547949184E1,6.472015381E-1,4.313644409E0,9.895339966E0
4.557968105E1,4.867858887E-1,3.593002319E0,9.129196167E0
4.567987026E1,1.178710938E0,3.652847290E0,9.433258057E0
4.578002895E1,8.267669678E-1,3.104583740E0,9.512268066E0
4.588018764E1,7.357788086E-1,3.516387939E0,9.699020386E0
4.598037685E1,3.981933594E-1,3.932968140E0,9.196243286E0
4.608053554E1,5.705871582E-1,4.119720459E0,9.617614746E0
4.618072475E1,2.425842285E-1,4.313644409E0,9.361434937E0
4.628088344E1,8.722534180E-1,4.347167969E0,9.624801636E0
4.638107265E1,5.825500488E-1,3.528350830E0,9.438049316E0
4.648123134E1,4.053802490E-1,3.485260010E0,9.710998535E0
4.658142055E1,3.144073486E-1,2.302520752E0,1.017068481E1
4.668160976E1,4.580535889E-1,1.094360352E-1,1.020179749E1
4.678176845E1,6.711425781E-1,3.823699951E-1,9.773239136E0
4.688192714E1,5.394592285E-1,-2.856140137E-1,9.337493896E0
4.698211635E1,8.219757080E-1,2.577850342E0,8.683883667E0
4.708230556E1,5.104064941E-2,1.543563843E0,7.709442139E0
4.718246425E1,7.621154785E-1,3.027969360E0,1.072613525E1
4.728262294E1,1.420532227E0,2.482086182E0,1.130552673E1
4.738281215E1,2.473602295E-1,3.403854370E0,9.979141235E0
4.748300136E1,3.407440186E-1,2.822067261E0,9.512268066E0
4.758318169E1,4.412994385E-1,3.530746460E0,9.576919556E0
4.768334038E1,8.914031982E-1,4.059860229E0,9.356643677E0
4.778349907E1,2.210235596E-1,3.482864380E0,9.428482056E0
4.788368828E1,5.035400391E-1,3.461318970E0,8.887390137E0
4.798384697E1,7.740936279E-1,3.600173950E0,9.428482056E0
4.808406670E1,4.628448486E-1,3.102188110E0,1.009645081E1
4.818422539E1,1.991271973E-2,3.255416870E0,9.895339966E0
4.828438408E1,3.910217285E-1,3.351181030E0,1.011082458E1
4.838457329E1,-7.824707031E-2,2.960922241E0,9.818725586E0
4.848476250E1,-1.764068604E-1,2.869949341E0,9.720565796E0
4.858492119E1,2.018737793E-1,3.396667480E0,9.567337036E0
4.868507988E1,1.132965088E-1,3.317657471E0,9.454818726E0
4.878526909E1,-3.515625000E-2,3.018386841E0,8.829925537E0
4.888545830E1,2.760925293E-1,3.037536621E0,9.050186157E0
4.898561699E1,6.400146484E-1,2.927413940E0,9.265670776E0
4.908580620E1,1.149978638E0,3.320053101E0,9.550582886E0
4.918599541E1,1.267303467E0,2.810089111E0,9.895339966E0
4.928615410E1,8.650665283E-1,1.926635742E0,1.023052979E1
4.938634331E1,4.891815186E-1,-1.034988403E0,9.998291016E0
4.948653252E1,7.573242188E-1,-6.902313232E-1,9.739715576E0
4.958666069E1,1.877822876E0,3.004028320E0,9.792388916E0
4.968688042E1,5.873413086E-1,1.735092163E0,8.832321167E0
4.978706963E1,1.360671997E0,1.579467773E0,1.048670959E1
4.988722832E1,5.370635986E-1,2.558700562E0,9.902526855E0
4.998738701E1,4.795989990E-1,2.137313843E0,9.196243286E0
5.008757622E1,5.538177490E-1,2.980087280E0,9.471572876E0
5.018776543E1,8.435211182E-1,2.436599731E0,9.248916626E0
5.028789360E1,8.937988281E-1,1.926635742E0,9.485931396E0
5.038811333E1,1.193069458E0,2.108596802E0,1.031672668E1
5.048830254E1,1.568969727E0,2.415054321E0,9.806762695E0
5.058846123E1,1.202651978E0,2.664047241E0,9.430862427E0
5.068865044E1,1.322357178E0,2.635314941E0,8.571350098E0
5.078880913E1,6.855010986E-1,1.993667603E0,9.548187256E0
5.088899834E1,7.046661377E-1,3.008804321E0,9.122024536E0
5.098915703E1,1.913726807E0,2.728683472E0,9.050186157E0
5.108931572E1,1.176315308E0,2.166046143E0,9.167510986E0
5.118947441E1,1.228988647E0,2.369552612E0,1.025207520E1
5.128966362E1,1.576141357E0,2.664047241E0,9.727752686E0
5.138985283E1,1.305603027E0,2.367172241E0,1.018504333E1
5.149001152E1,9.704132080E-1,2.496444702E0,9.404525757E0
5.159017021E1,1.013504028E0,1.713546753E0,9.143569946E0
5.169035942E1,1.398971558E0,2.680801392E0,9.773239136E0
5.179051811E1,1.118850708E0,2.053527832E0,9.945617676E0
5.189070732E1,1.509109497E0,2.685592651E0,9.811553955E0
5.199092705E1,8.267669678E-1,1.823684692E0,9.459594727E0
5.209108574E1,1.667129517E0,2.769393921E0,1.095118713E1
5.219124443E1,1.267303467E0,2.321670532E0,1.027601624E1
5.229143364E1,1.506713867E0,2.496444702E0,1.003900146E1
5.239159233E1,1.664733887E0,1.998458862E0,9.351867676E0
5.249178154E1,1.413345337E0,1.814102173E0,1.025207520E1
5.259194023E1,1.157165527E0,2.156478882E0,8.418121338E0
5.269212944E1,7.740936279E-1,2.280975342E0,7.941680908E0
5.279228813E1,1.281661987E0,2.434204102E0,1.027124023E1
5.289247734E1,7.597198486E-1,2.087036133E0,9.117233276E0
5.299263603E1,1.920913696E0,1.761428833E0,9.620010376E0
5.309282524E1,1.561782837E0,1.948181152E0,1.005335999E1
5.319298393E1,1.607269287E0,1.924240112E0,1.035502625E1
5.329317314E1,1.595306396E0,2.285766602E0,9.406921387E0
5.339336235E1,6.998748779E-1,2.110992432E0,9.418899536E0
5.349352104E1,-2.530212402E-1,1.672851562E0,8.080535889E0
5.359371025E1,1.145187378E0,2.338439941E0,1.171253967E1
5.369386894E1,8.076019287E-1,1.814102173E0,1.064712524E1
5.379405815E1,5.825500488E-1,1.926635742E0,9.648742676E0
5.389424736E1,4.724273682E-1,1.787765503E0,9.363830566E0
5.399440605E1,1.132965088E-1,1.861984253E0,7.896179199E0
5.409459526E1,-2.817535400E-1,1.402297974E0,8.961608887E0
5.419475395E1,1.217010498E0,1.929031372E0,1.107807922E1
5.429494316E1,1.109008789E-1,2.089431763E0,1.124089050E1
5.439510185E1,8.243713379E-1,8.181152344E-1,9.620010376E0
5.449529106E1,1.655151367E0,1.483703613E0,9.234542847E0
5.459544975E1,7.860565186E-1,2.230697632E0,1.094879150E1
5.469563896E1,3.934173584E-1,2.302520752E0,1.054177856E1
5.479582817E1,6.831054688E-1,2.015213013E0,1.077641296E1
5.489598686E1,9.919586182E-1,1.955368042E0,9.459594727E0
5.499617607E1,1.178710938E0,2.084655762E0,9.533813477E0
5.509636528E1,-8.782958984E-2,1.469345093E0,8.796401978E0
5.519655449E1,8.626708984E-1,1.672851562E0,1.020898438E1
5.529668266E1,3.670806885E-1,-1.161895752E0,8.360656738E0
5.539687187E1,6.472015381E-1,2.171783447E-1,1.043403625E1
5.549706108E1,1.466018677E0,2.834030151E0,1.022813416E1
5.559721977E1,7.429656982E-1,1.385543823E0,8.303207397E0
5.569740898E1,1.683502197E-1,1.352020264E0,9.351867676E0
5.579759819E1,4.460906982E-1,1.112609863E0,1.105892944E1
5.589775688E1,4.724273682E-1,1.687210083E0,9.699020386E0
5.599794609E1,7.453613281E-1,6.912231445E-1,8.741333008E0
5.609813530E1,2.114562988E-1,1.471740723E0,9.215393066E0
5.619829399E1,3.574981689E-1,1.462158203E0,9.315948486E0
5.629845268E1,6.926879883E-1,1.533981323E0,1.098471069E1
5.639864189E1,8.315582275E-1,2.189987183E0,1.071894836E1
5.649880058E1,8.695983887E-2,1.265838623E0,7.987167358E0
5.659898979E1,1.420532227E0,1.818893433E0,9.833099365E0
5.669917900E1,6.543731689E-1,1.658477783E0,9.799575806E0
5.679936821E1,1.123641968E0,1.665664673E0,8.947235107E0
5.689952690E1,1.166732788E0,1.562713623E0,9.330307007E0
5.699971611E1,9.201354980E-1,1.634536743E0,9.493118286E0
5.709987480E1,7.286071777E-1,1.438217163E0,9.375808716E0
5.720006401E1,6.807098389E-1,9.378204346E-1,8.418121338E0
5.730022270E1,5.343627930E-2,3.871612549E-1,7.252151489E0
5.740038139E1,1.123641968E0,2.257034302E0,8.528259277E0
5.750057060E1,1.217010498E0,2.237884521E0,1.074528503E1
5.760081502E1,2.976379395E-1,1.495681763E0,9.794784546E0
5.770100423E1,2.497558594E-1,1.031204224E0,1.097033691E1
5.780116292E1,-9.979248047E-2,1.026412964E0,8.990341187E0
5.790135213E1,6.779479980E-2,1.443008423E0,8.714996338E0
5.800154134E1,1.300506592E-1,1.342453003E0,1.014195251E1
5.810170003E1,4.125671387E-1,2.082260132E0,1.024250793E1
5.820185872E1,8.794403076E-1,1.737487793E0,1.001745605E1
5.830204793E1,3.838348389E-1,1.380752563E0,9.452423096E0
5.840223714E1,3.431396484E-1,1.299346924E0,9.509872437E0
5.850239583E1,1.109008789E-1,7.821960449E-1,9.126800537E0
5.860258504E1,3.790435791E-1,1.735092163E0,9.785217285E0
5.870274373E1,5.729827881E-1,7.151641846E-1,8.633605957E0
5.880293294E1,4.436950684E-1,1.648910522E0,1.040769958E1
5.890309164E1,4.700317383E-1,1.469345093E0,9.258483887E0
5.900328084E1,1.156921387E-1,1.469345093E0,9.883377075E0
5.910347005E1,4.269256592E-1,1.572296143E0,1.034545898E1
5.920362874E1,1.444091797E-1,1.311325073E0,9.718170166E0
5.930378744E1,1.755371094E-1,1.490890503E0,9.284820557E0
5.940397664E1,3.958129883E-1,9.928894043E-1,9.227355957E0
5.950416585E1,4.508666992E-1,1.028808594E0,9.624801636E0
5.960432455E1,8.147888184E-1,1.344833374E0,1.028799438E1
5.970451375E1,4.915771484E-1,1.466949463E0,9.864227295E0
5.980470296E1,1.755371094E-1,7.438964844E-1,1.031433105E1
5.990489217E1,3.428649902E-2,9.354248047E-1,1.026165771E1
6.000505086E1,6.639556885E-1,7.199554443E-1,9.483535767E0
6.010520956E1,7.019042969E-2,1.273010254E0,9.560150146E0
6.020539876E1,6.064910889E-1,1.225128174E0,9.615219116E0
6.030555746E1,-1.620483398E-1,1.131759644E0,8.719787598E0
6.040574666E1,7.693023682E-1,1.553131104E0,8.626419067E0
6.050593587E1,7.949829102E-3,1.124572754E0,8.564163208E0
6.060609456E1,1.683502197E-1,8.348693848E-1,9.141174316E0
6.070628377E1,-1.599121094E-2,1.320892334E0,1.108047485E1
6.080644246E1,3.862304688E-1,1.495681763E0,1.025686646E1
6.090663167E1,2.784881592E-1,1.794952393E0,8.777252197E0
6.100682088E1,4.795989990E-1,1.955368042E0,9.861831665E0
6.110697957E1,3.814392090E-1,1.215560913E0,1.052742004E1
6.120716878E1,3.096160889E-1,1.842834473E0,1.104934692E1
6.130732748E1,1.994781494E-1,1.205978394E0,9.318344116E0
6.140751668E1,1.923065186E-1,8.588104248E-1,9.902526855E0
6.150767538E1,1.204681396E-1,1.330474854E0,9.928863525E0
6.160786458E1,5.035400391E-1,1.373565674E0,9.770843506E0
6.170805379E1,-5.139923096E-1,8.205108643E-1,1.007730103E1
6.180824300E1,-1.045837402E-1,6.074218750E-1,7.915344238E0
6.190840169E1,-1.811981201E-1,1.603408813E0,1.072853088E1
6.200856038E1,-5.714569092E-1,8.157196045E-1,1.017785645E1
6.210874959E1,2.138519287E-1,1.098236084E0,9.864227295E0
6.220893880E1,-2.171020508E-1,1.471740723E0,9.710998535E0
6.230909749E1,-8.303833008E-2,8.444519043E-1,7.711837769E0
6.240928670E1,-3.128814697E-1,7.415008545E-1,9.198638916E0
6.250944539E1,-1.261291504E-1,1.158096313E0,9.883377075E0
6.260963460E1,4.628448486E-1,1.732696533E0,9.397354126E0
6.270982381E1,1.152374268E0,1.220336914E0,1.065670776E1
6.280998250E1,2.760925293E-1,1.194000244E0,9.220184326E0
6.291014120E1,4.556579590E-1,-1.563262939E-1,9.488327026E0
6.301033040E1,6.998748779E-1,-2.137908936E-1,8.758102417E0
6.311051961E1,1.212234497E0,-3.204147339E0,9.689437866E0
6.321067830E1,5.825500488E-1,-5.488204956E0,9.950408936E0
6.331086751E1,7.629394531E-4,-4.872894287E0,1.064952087E1
6.341105672E1,-2.436538696E0,-5.026123047E0,1.080754089E1
6.351121541E1,1.317581177E0,-5.737213135E0,9.122024536E0
6.361140462E1,1.439682007E0,-5.232025146E0,9.260879517E0
6.371159383E1,1.734161377E0,-5.828186035E0,9.770843506E0
6.381175252E1,8.866119385E-1,-5.064437866E0,9.064559937E0
6.391191122E1,-2.078247070E-2,-5.418777466E0,9.191452026E0
6.401210042E1,-4.301910400E-1,-5.909591675E0,1.032391357E1
6.411225912E1,6.328277588E-1,-5.725234985E0,8.863449097E0
6.421244832E1,1.492004395E-1,-6.062820435E0,1.018983459E1
6.431263753E1,1.236175537E0,-6.084365845E0,1.009407043E1
6.441279623E1,8.483123779E-1,-5.722839355E0,9.916885376E0
6.451298543E1,4.484863281E-1,-5.969451904E0,9.244125366E0
6.461314412E1,1.114074707E0,-5.624679565E0,9.459594727E0
6.471336385E1,3.168029785E-1,-5.617492676E0,9.323135376E0
6.481355306E1,1.193069458E0,-4.860931396E0,9.768447876E0
6.491368123E1,5.131225586E-1,-4.176193237E0,1.005575562E1
6.501387044E1,3.311614990E-1,-3.038940430E0,9.675079346E0
6.511405965E1,-4.421691895E-1,-1.104431152E0,9.586486816E0
6.521421834E1,1.515960693E-1,-1.049362183E0,9.869003296E0
6.531440755E1,7.019042969E-2,-7.812042236E-1,9.778030396E0
6.541456624E1,2.138519287E-1,-5.274200439E-1,8.437271118E0
6.551475545E1,6.062316895E-2,-1.020629883E0,8.748519897E0
6.561497518E1,1.683502197E-1,-1.066116333E0,9.904922485E0
6.571510335E1,2.760925293E-1,-8.674011230E-1,9.919281006E0
6.581529256E1,8.004302979E-1,-1.946258545E-1,1.054656982E1
6.591545125E1,2.401885986E-1,-2.449035645E-1,9.931259155E0
6.601564046E1,2.042694092E-1,-1.587219238E-1,9.758880615E0
6.611579915E1,-3.344268799E-1,5.858764648E-1,8.746124268E0
6.621598836E1,4.029846191E-1,-3.191223145E-1,9.833099365E0
6.631614706E1,4.341125488E-1,3.129425049E-1,9.490722656E0
6.641633626E1,1.166732788E0,-3.182983398E-2,9.900131226E0
6.651652547E1,1.925704956E0,4.613800049E-1,1.001506042E1
6.661668416E1,2.023864746E0,1.040771484E0,9.900131226E0
6.671687337E1,2.100479126E0,9.497985840E-1,8.729370117E0
6.681703206E1,1.245742798E0,1.059936523E0,8.772460938E0
6.691722127E1,1.432495117E0,9.713439941E-1,9.823516846E0
6.701737996E1,1.018295288E0,-2.616729736E-1,9.780426025E0
6.711759969E1,1.561782837E0,2.411193848E-1,9.933654785E0
6.721775838E1,9.129486084E-1,3.521728516E-2,1.011801147E1
6.731791707E1,1.439682007E0,1.024017334E0,9.825912476E0
6.741810628E1,7.525482178E-1,8.683929443E-1,9.189056396E0
6.751829549E1,8.842163086E-1,7.247467041E-1,9.550582886E0
6.761842154E1,9.919586182E-1,5.619354248E-1,9.567337036E0
6.771861074E1,8.890075684E-1,7.678375244E-1,9.543395996E0
6.781876944E1,9.033813477E-1,9.210662842E-1,9.536209106E0
6.791895864E1,8.339385986E-1,1.026412964E0,1.020179749E1
6.801914785E1,1.020690918E0,8.540344238E-1,9.943222046E0
6.811930654E1,1.056610107E0,8.468475342E-1,9.533813477E0
6.821949575E1,7.309875488E-1,1.000076294E0,9.174682617E0
6.831968496E1,4.269256592E-1,6.241912842E-1,9.260879517E0
6.841984366E1,1.276870728E0,9.976806641E-1,1.048191833E1
6.852003286E1,1.238571167E0,2.866058350E-1,9.057373047E0
6.862019156E1,5.921325684E-1,3.608245850E-1,9.143569946E0
6.872038076E1,2.760925293E-1,6.576995850E-1,1.011082458E1
6.882056997E1,7.357788086E-1,9.067077637E-1,1.076683044E1
6.892072866E1,7.860565186E-1,1.107818604E0,9.739715576E0
6.902091787E1,3.311614990E-1,6.984100342E-1,8.552200317E0
6.912107657E1,5.083312988E-1,7.606506348E-1,9.313552856E0
6.922126577E1,6.064910889E-1,8.612060547E-1,1.015391541E1
6.932142446E1,5.107269287E-1,5.786895752E-1,1.024967957E1
6.942161367E1,6.208648682E-1,5.691223145E-1,9.837890625E0
6.952180288E1,1.492004395E-1,3.895568848E-1,9.296798706E0
6.962196158E1,4.676361084E-1,9.928894043E-1,9.833099365E0
6.972212027E1,3.311614990E-1,6.050262451E-1,9.699020386E0
6.982230948E1,1.420288086E-1,1.190032959E-1,9.605651855E0
6.992246817E1,5.227050781E-1,2.315368652E-1,9.576919556E0
7.002265738E1,2.138519287E-1,4.781341553E-1,9.687042236E0
7.012284658E1,1.013504028E0,2.387237549E-1,9.756484985E0
7.022303579E1,3.287658691E-1,-2.703857422E-2,9.052581787E0
7.032319448E1,6.639556885E-1,2.435150146E-1,1.009884644E1
7.042338369E1,7.860565186E-1,2.267456055E-1,9.801971436E0
7.052354238E1,7.908477783E-1,3.249053955E-1,1.015870667E1
7.062373159E1,1.468048096E-1,2.563476562E-2,9.282424927E0
7.072389029E1,9.512634277E-1,2.842102051E-1,9.940841675E0
7.082407950E1,4.580535889E-1,2.674560547E-1,9.646347046E0
7.092426870E1,7.525482178E-1,1.980133057E-1,9.981536865E0
7.102442740E1,6.448059082E-1,1.501312256E-1,9.239334106E0
7.112461660E1,8.123931885E-1,3.416748047E-1,8.904144287E0
7.122477530E1,8.028259277E-1,5.475769043E-1,1.015151978E1
7.132499502E1,1.035064697E0,1.740722656E-1,1.017785645E1
7.142515371E1,7.262115479E-1,2.650604248E-1,9.105255127E0
7.152531241E1,6.472015381E-1,5.044708252E-1,9.459594727E0
7.162550161E1,8.866119385E-1,3.392791748E-1,9.900131226E0
7.172569082E1,3.168029785E-1,1.764678955E-1,9.713378906E0
7.182584951E1,5.490417480E-1,5.197143555E-2,9.902526855E0
7.192600820E1,8.028259277E-1,5.882720947E-1,9.682266235E0
7.202619741E1,7.429656982E-1,4.326477051E-1,1.009645081E1
7.212635611E1,2.306060791E-1,1.605224609E-2,9.727752686E0
7.222657583E1,4.101715088E-1,-5.577087402E-2,9.177078247E0
7.232673452E1,8.722534180E-1,4.661712646E-1,9.840270996E0
7.242689322E1,7.166290283E-1,1.844787598E-2,9.983932495E0
7.252708242E1,5.442504883E-1,1.261901855E-1,9.900131226E0
7.262724112E1,5.251007080E-1,7.830810547E-2,9.320739746E0
7.272743032E1,1.013504028E0,2.803039551E-2,9.974349976E0
7.282761953E1,1.121246338E0,1.525268555E-1,9.789993286E0
7.292777823E1,1.449249268E0,-5.633392334E-1,9.773239136E0
7.302796743E1,4.795989990E-1,-1.036529541E-1,9.074127197E0
7.312812613E1,7.764892578E-1,5.116577148E-1,9.876190186E0
7.322831533E1,4.891815186E-1,3.584289551E-1,1.008927917E1
7.332850454E1,-1.596527100E-1,2.458953857E-1,9.665496826E0
7.342866324E1,3.431396484E-1,2.363281250E-1,9.964782715E0
7.352885244E1,7.716979980E-1,2.842102051E-1,1.033108521E1
7.362901114E1,2.035827637E0,-8.817596436E-1,9.873794556E0
7.372920034E1,7.645111084E-1,-9.392242432E-1,7.771682739E0
7.382938955E1,3.215789795E-1,-3.097534180E-3,8.664718628E0
7.392957876E1,8.626708984E-1,-9.407043457E-2,9.236938477E0
7.402973745E1,1.114074707E0,-1.563262939E-1,1.094160461E1
7.412992666E1,1.396331787E-1,-5.082702637E-1,1.006773376E1
7.423008535E1,7.118377686E-1,-4.077148438E-1,1.003900146E1
7.433024404E1,2.114562988E-1,-5.609436035E-1,8.561767578E0
7.443043325E1,1.070968628E0,-6.056213379E-2,9.603256226E0
7.453062246E1,8.339385986E-1,-2.520904541E-1,9.878585815E0
7.463078116E1,7.908477783E-1,2.323913574E-2,8.997512817E0
7.473097036E1,5.897369385E-1,2.698364258E-1,9.107650757E0
7.483112906E1,1.027877808E0,2.147827148E-1,9.643951416E0
7.493134878E1,1.296020508E0,2.084350586E-2,1.080754089E1
7.503150747E1,7.812805176E-1,1.605224609E-2,9.907318115E0
7.513169668E1,2.353973389E-1,1.190032959E-1,9.052581787E0
7.523185537E1,7.597198486E-1,5.475769043E-1,9.706207275E0
7.533201407E1,1.109283447E0,2.818145752E-1,9.912109375E0
7.543220327E1,1.099700928E0,1.884460449E-1,1.011322021E1
7.553239248E1,1.305603027E0,2.099914551E-1,1.016110229E1
7.563255117E1,7.429656982E-1,3.632202148E-1,1.013237000E1
7.573274038E1,3.383483887E-1,2.171783447E-1,8.987945557E0
7.583289908E1,6.304321289E-1,2.075958252E-1,8.892181396E0
7.593308828E1,6.855010986E-1,-4.220733643E-1,9.624801636E0
7.603327749E1,2.425842285E-1,-1.299896240E-1,9.325531006E0
7.613343618E1,6.663513184E-1,-1.299896240E-1,1.036460876E1
7.623362539E1,5.705871582E-1,-3.215179443E-1,9.962387085E0
7.633378408E1,6.304321289E-1,3.042602539E-2,9.636764526E0
7.643397329E1,7.884521484E-1,1.094360352E-1,8.679092407E0
7.653413198E1,6.136779785E-1,-5.097961426E-2,1.023052979E1
7.663432119E1,7.621154785E-1,-4.005279541E-1,9.890548706E0
7.673451040E1,8.171844482E-1,-2.281494141E-1,9.335098267E0
7.683466909E1,1.013504028E0,2.315368652E-1,9.215393066E0
7.693485830E1,4.365081787E-1,3.057556152E-1,9.560150146E0
7.703507803E1,6.711425781E-1,1.501312256E-1,9.845062256E0
7.713520620E1,7.046661377E-1,1.142272949E-1,1.060403442E1
7.723539541E1,9.225311279E-1,2.171783447E-1,1.016349792E1
7.733555410E1,1.013183594E-1,-6.926269531E-1,8.959213257E0
7.743571280E1,1.512145996E-2,4.182891846E-1,7.996749878E0
7.753594286E1,4.819946289E-1,7.415008545E-1,9.411712646E0
7.763613207E1,1.133224487E0,3.320922852E-1,8.681488037E0
7.773629076E1,5.346679688E-1,4.517974854E-1,9.682266235E0
7.783647997E1,9.129486084E-1,-8.689880371E-2,1.030474854E1
7.793666918E1,6.567687988E-1,1.381683350E-1,1.018983459E1
7.803682787E1,6.998748779E-1,3.057556152E-1,9.390167236E0
7.813701708E1,5.179138184E-1,3.081512451E-1,9.426086426E0
7.823720629E1,7.860565186E-1,3.823699951E-1,9.411712646E0
7.833736498E1,7.094421387E-1,5.676269531E-2,1.000547791E1
7.843755419E1,1.233779907E0,8.789062500E-2,1.011082458E1
7.853771288E1,2.186431885E-1,-5.493164062E-3,9.452423096E0
7.863787157E1,9.081726074E-1,2.530822754E-1,9.995895386E0
7.873809130E1,6.735382080E-1,4.733581543E-1,9.907318115E0
7.883824999E1,1.899108887E-1,-6.533813477E-2,8.652755737E0
7.893843920E1,5.562133789E-1,4.302520752E-1,9.196243286E0
7.903859789E1,6.495971680E-1,2.267456055E-1,9.232147217E0
7.913878710E1,4.125671387E-1,1.118316650E-1,9.335098267E0
7.923894579E1,6.902923584E-1,2.219543457E-1,9.933654785E0
7.933913500E1,6.543731689E-1,4.230804443E-1,9.667892456E0
7.943929369E1,5.035400391E-1,1.669006348E-1,9.442840576E0
7.953948290E1,3.048248291E-1,3.536376953E-1,9.157928467E0
7.963967211E1,1.204681396E-1,-1.180114746E-1,9.550582886E0
7.973983080E1,8.315582275E-1,3.991241455E-1,1.033348083E1
7.984002001E1,4.628448486E-1,2.578735352E-1,9.847457886E0
7.994020922E1,1.047027588E0,1.525268555E-1,9.406921387E0
8.004036791E1,4.987640381E-1,5.882720947E-1,9.794784546E0
8.014055712E1,3.263702393E-1,1.019226074E0,9.418899536E0
8.024071581E1,4.005889893E-1,6.313629150E-1,1.064472961E1
8.034090502E1,1.037445068E0,3.823699951E-1,1.034545898E1
8.044109423E1,4.772033691E-1,-2.377319336E-1,8.884994507E0
8.054125292E1,7.357788086E-1,8.037567139E-1,1.033348083E1
8.064144213E1,6.926879883E-1,2.746276855E-1,8.990341187E0
8.074160082E1,8.722534180E-1,3.464508057E-1,9.706207275E0
8.084179003E1,6.304321289E-1,-6.056213379E-2,9.883377075E0
8.094197924E1,1.264907837E0,3.656158447E-1,1.040052795E1
8.104213793E1,3.407440186E-1,3.991241455E-1,9.533813477E0
8.114232714E1,8.411254883E-1,6.289672852E-1,9.095687866E0
8.124248583E1,-1.788024902E-1,2.626647949E-1,8.916122437E0
8.134267504E1,1.161956787E0,6.648864746E-1,1.086021423E1
8.144286425E1,1.133224487E0,4.374389648E-1,1.104695129E1
8.154302294E1,7.046661377E-1,3.536376953E-1,8.470794678E0
8.164321215E1,8.028259277E-1,3.751831055E-1,9.131591797E0
8.174340136E1,8.914031982E-1,3.919525146E-1,8.683883667E0
8.184356005E1,1.288848877E0,4.517974854E-1,9.976745605E0
8.194374926E1,1.145187378E0,3.344879150E-1,9.825912476E0
8.204390795E1,1.243347168E0,3.273010254E-1,9.849853516E0
8.214409716E1,3.335571289E-1,1.357727051E-1,8.999908447E0
8.224425585E1,8.243713379E-1,7.558593750E-1,9.945617676E0
8.234444506E1,4.676361084E-1,2.267456055E-1,9.787612915E0
8.244460375E1,8.171844482E-1,7.750244141E-1,9.308761597E0
8.254479296E1,6.352233887E-1,2.004089355E-1,1.000308228E1
8.264495165E1,1.003936768E0,3.153381348E-1,9.002304077E0
8.274514086E1,1.118850708E0,3.560333252E-1,1.014434814E1
8.284529955E1,6.567687988E-1,3.296966553E-1,9.667892456E0
8.294548876E1,6.783294678E-1,5.571441650E-1,9.605651855E0
8.304567797E1,5.921325684E-1,-1.922302246E-1,1.019223022E1
8.314583666E1,1.420288086E-1,4.996948242E-1,7.776473999E0
8.324602587E1,9.704132080E-1,5.451812744E-1,9.655929565E0
8.334621508E1,-4.062500000E-1,3.751831055E-1,9.143569946E0
8.344637377E1,4.724273682E-1,4.422302246E-1,1.059205627E1
8.354653246E1,7.381744385E-1,4.541931152E-1,1.109962463E1
8.364675219E1,8.028259277E-1,5.858764648E-1,8.846679688E0
8.374691088E1,9.297180176E-1,1.166076660E-1,9.107650757E0
8.384706957E1,9.488677979E-1,5.116577148E-1,1.074288940E1
8.394725878E1,6.184692383E-1,4.111022949E-1,9.706207275E0
8.404741747E1,3.574981689E-1,2.315368652E-1,9.155532837E0
8.414760668E1,6.232604980E-1,5.619354248E-1,9.849853516E0
8.424779589E1,1.070968628E0,7.702331543E-1,9.447631836E0
8.434795458E1,6.831054688E-1,4.254608154E-1,9.730148315E0
8.444814379E1,6.783294678E-1,2.722320557E-1,9.806762695E0
8.454833300E1,1.209838867E0,3.368835449E-1,9.248916626E0
8.464849169E1,3.431396484E-1,4.781341553E-1,1.000547791E1
8.474868090E1,6.112823486E-1,2.602691650E-1,1.056811523E1
8.484883959E1,7.238159180E-1,1.033599854E0,9.485931396E0
8.494902880E1,5.945281982E-1,6.600952148E-1,9.186660767E0
8.504918749E1,1.563873291E-1,3.751831055E-1,9.203414917E0
8.514937670E1,8.890075684E-1,1.143722534E0,1.056332397E1
8.524956591E1,1.078155518E0,6.146087646E-1,9.265670776E0
8.534972460E1,5.104064941E-2,1.692810059E-1,9.785217285E0
8.544991381E1,6.304321289E-1,8.803710938E-1,9.584091187E0
8.555010302E1,1.126037598E0,1.107818604E0,8.669509888E0
8.565026171E1,6.280517578E-1,1.347229004E0,9.421295166E0
8.575042040E1,9.584503174E-1,1.016830444E0,1.090570068E1
8.585064013E1,8.935546875E-2,4.613800049E-1,9.663101196E0
8.595079882E1,7.429656982E-1,6.672821045E-1,9.821121216E0
8.605098803E1,1.068572998E0,1.543563843E0,9.234542847E0
8.615117724E1,9.847869873E-1,1.057540894E0,8.624023438E0
8.625130541E1,1.147583008E0,1.328079224E0,9.830703735E0
8.635149462E1,1.013504028E0,8.013610840E-1,1.048910522E1
8.645168383E1,7.737731934E-2,3.871612549E-1,9.866607666E0
8.655184252E1,4.508666992E-1,1.836547852E-1,1.029757690E1
8.665203173E1,3.239746094E-1,6.170043945E-1,1.009884644E1
8.675222094E1,9.177398682E-1,5.164489746E-1,1.048191833E1
8.685237963E1,6.400146484E-1,8.492431641E-1,1.005815125E1
8.695259936E1,7.737731934E-2,5.212402344E-1,8.798797607E0
8.705272753E1,7.142333984E-1,1.301742554E0,1.013955688E1
8.715291674E1,7.932434082E-1,7.941741943E-1,9.892944336E0
8.725307543E1,3.383483887E-1,4.925079346E-1,9.837890625E0
8.735326464E1,4.604492188E-1,2.602691650E-1,1.012997437E1
8.745345385E1,6.136779785E-1,2.458953857E-1,1.033108521E1
8.755355906E1,-7.270812988E-1,1.477355957E-1,9.332702637E0
8.765374827E1,2.904663086E-1,3.464508057E-1,1.009407043E1
8.775390696E1,5.801544189E-1,3.225097656E-1,9.993499756E0
8.785409617E1,2.689208984E-1,3.991241455E-1,8.372634888E0
8.795425486E1,7.737731934E-2,5.858764648E-1,8.073364258E0
8.805444407E1,4.604492188E-1,1.402297974E0,9.766052246E0
8.815460276E1,8.961944580E-1,1.043167114E0,9.993499756E0
8.825479197E1,2.904663086E-1,5.571441650E-1,9.620010376E0
8.835495066E1,5.634002686E-1,4.494018555E-1,9.775634766E0
8.845517039E1,4.772033691E-1,9.210662842E-1,9.244125366E0
8.855532908E1,3.981933594E-1,4.446258545E-1,9.610427856E0
8.865548777E1,8.219757080E-1,8.492431641E-1,9.485931396E0
8.875567698E1,4.412994385E-1,3.249053955E-1,1.023292542E1
8.885586619E1,9.057769775E-1,2.291412354E-1,1.099427795E1
8.895602488E1,-2.078247070E-2,6.744689941E-1,8.999908447E0
8.905621409E1,1.296020508E0,7.151641846E-1,1.012518311E1
8.915637278E1,6.639556885E-1,6.002502441E-1,8.887390137E0
8.925656199E1,6.448059082E-1,7.989654541E-1,1.035263062E1
8.935675120E1,7.357788086E-1,6.553039551E-1,1.080993652E1
8.945690989E1,7.501525879E-1,4.206848145E-1,9.864227295E0
8.955709910E1,4.293212891E-1,9.354248047E-1,9.160324097E0
8.965728831E1,4.700317383E-1,6.529235840E-1,9.620010376E0
8.975744700E1,1.008728027E0,8.396606445E-1,9.945617676E0
8.985763621E1,3.048248291E-1,6.744689941E-1,9.095687866E0
8.995779490E1,7.381744385E-1,6.122131348E-1,9.418899536E0
9.005798411E1,5.705871582E-1,4.326477051E-1,1.030235291E1
9.015817332E1,6.663513184E-1,5.978546143E-1,9.519454956E0
9.025836253E1,2.401885986E-1,2.075958252E-1,8.336715698E0
9.035852122E1,6.328277588E-1,5.619354248E-1,9.260879517E0
9.045867991E1,1.281661987E0,2.530822754E-1,1.074528503E1
9.055886912E1,2.282104492E-1,7.893829346E-1,9.459594727E0
9.065902781E1,5.897369385E-1,4.949035645E-1,1.034785461E1
9.075921702E1,3.359527588E-1,1.208374023E0,8.940063477E0
9.085937571E1,1.042236328E0,1.079086304E0,1.152580261E1
9.095956492E1,7.429656982E-1,7.351684570E-2,9.387771606E0
9.105972361E1,1.312789917E0,1.273010254E0,1.011801147E1
9.115991282E1,6.711425781E-1,2.171783447E-1,9.450027466E0
9.126010203E1,1.512145996E-2,2.052001953E-1,8.844284058E0
9.136026072E1,7.812805176E-1,7.247467041E-1,1.078837585E1
9.146044993E1,6.663513184E-1,9.282531738E-1,1.004617310E1
9.156060862E1,4.365081787E-1,7.510833740E-1,9.620010376E0
9.166079783E1,7.046661377E-1,9.833221436E-1,9.974349976E0
9.176095652E1,4.604492188E-1,9.450073242E-1,9.634368896E0
9.186117625E1,1.044631958E0,1.459762573E0,8.647964478E0
9.196130442E1,7.669067383E-1,3.368835449E-1,1.018504333E1
9.206149363E1,7.118377686E-1,1.026412964E0,1.186097717E1
9.216168284E1,3.886260986E-1,6.864318848E-1,9.418899536E0
9.226187205E1,5.490417480E-1,1.908416748E-1,8.607269287E0
9.236203074E1,2.713012695E-1,-1.132354736E-1,9.878585815E0
9.246221995E1,6.902923584E-1,1.573181152E-1,1.092005920E1
9.256237864E1,1.260116577E0,7.319183350E-1,1.069979858E1
9.266256785E1,4.556579590E-1,1.357727051E-1,9.133987427E0
9.276272654E1,5.681915283E-1,3.823699951E-1,9.710998535E0
9.286291575E1,1.219406128E0,3.536376953E-1,1.008448792E1
9.296307444E1,9.584503174E-1,5.188446045E-1,1.055375671E1
9.306326365E1,7.022705078E-1,3.584289551E-1,9.706207275E0
9.316342234E1,4.843902588E-1,4.517974854E-1,1.025686646E1
9.326364207E1,8.387298584E-1,3.320922852E-1,9.399749756E0
9.336380076E1,1.899108887E-1,-3.933563232E-1,8.975967407E0
9.346398997E1,3.191986084E-1,3.153381348E-1,8.592895508E0
9.356414866E1,5.011444092E-1,4.158935547E-1,9.993499756E0
9.366430735E1,9.129486084E-1,2.961730957E-1,9.754089355E0
9.376449656E1,5.897369385E-1,5.715179443E-1,1.005096436E1
9.386468577E1,1.324462891E-1,6.744689941E-1,1.015391541E1
9.396487498E1,5.729827881E-1,5.547485352E-1,9.253692627E0
9.406506419E1,4.532623291E-1,1.740722656E-1,1.016589355E1
9.416522288E1,4.963684082E-1,4.853210449E-1,9.840270996E0
9.426538157E1,7.094421387E-1,9.019165039E-1,1.007490540E1
9.436557078E1,3.718719482E-1,2.746276855E-1,9.603256226E0
9.446572947E1,5.562133789E-1,4.949035645E-1,9.117233276E0
9.456591868E1,2.976379395E-1,3.440704346E-1,9.823516846E0
9.466610789E1,8.339385986E-1,4.398345947E-1,9.550582886E0
9.476626658E1,6.807098389E-1,3.847656250E-1,1.010842896E1
9.486645579E1,3.934173584E-1,3.201293945E-1,8.997512817E0
9.496661448E1,3.239746094E-1,3.991241455E-1,9.967163086E0
9.506683421E1,7.166290283E-1,7.941741943E-1,1.018983459E1
9.516696238E1,3.766479492E-1,4.350433350E-1,9.354248047E0
9.526715159E1,2.880706787E-1,4.829254150E-1,1.051544189E1
9.536731028E1,3.096160889E-1,3.153381348E-1,1.001266479E1
9.546749949E1,8.695983887E-2,-3.765869141E-1,9.423690796E0
9.556768870E1,3.431396484E-1,3.201293945E-1,9.239334106E0
9.566784739E1,6.352233887E-1,4.565887451E-1,1.001983643E1
9.576803660E1,2.497558594E-1,1.605224609E-2,1.046037292E1
9.586819529E1,2.377929688E-1,1.453399658E-1,9.105255127E0
9.596841502E1,2.952575684E-1,2.099914551E-1,1.007730103E1
9.606857371E1,2.736968994E-1,9.028625488E-2,1.015391541E1
9.616873240E1,5.538177490E-1,2.530822754E-1,9.981536865E0
9.626892161E1,5.610046387E-1,3.440704346E-1,9.064559937E0
9.636911082E1,6.639556885E-1,4.278564453E-1,9.380584717E0
9.646926951E1,8.722534180E-1,1.932220459E-1,9.428482056E0
9.656942820E1,6.663513184E-1,2.698364258E-1,9.165115356E0
9.666961741E1,4.652404785E-1,2.339324951E-1,9.687042236E0
9.676980662E1,9.057769775E-1,2.794189453E-1,9.823516846E0
9.686996531E1,8.459167480E-1,4.661712646E-1,9.933654785E0
9.697015452E1,4.460906982E-1,3.488464355E-1,1.005096436E1
9.707034373E1,5.466461182E-1,2.411193848E-1,9.174682617E0
9.717050242E1,2.880706787E-1,2.028045654E-1,9.165115356E0
9.727069163E1,7.238159180E-1,5.116577148E-1,9.998291016E0
9.737088084E1,3.000335693E-1,1.357727051E-1,9.253692627E0
9.747103953E1,7.860565186E-1,4.398345947E-1,1.030714417E1
9.757119900E1,6.950836182E-1,3.440704346E-1,1.001506042E1
9.767138820E1,1.923065186E-1,1.261901855E-1,1.016828918E1
9.777157741E1,8.818359375E-1,5.978546143E-1,9.378204346E0
9.787176662E1,8.961944580E-1,5.978546143E-1,8.844284058E0
9.797192531E1,6.062316895E-2,-8.210754395E-2,9.174682617E0
9.807211452E1,1.260116577E0,6.624908447E-1,9.648742676E0
9.817227321E1,3.239746094E-1,-1.228027344E-1,8.906539917E0
9.827246242E1,5.873413086E-1,7.127685547E-1,1.005335999E1
9.837262111E1,5.490417480E-1,3.632202148E-1,9.253692627E0
9.847281032E1,4.269256592E-1,-7.492065430E-2,9.469177246E0
9.857296902E1,5.729827881E-1,3.440704346E-1,1.004856873E1
9.867315822E1,9.560546875E-1,-1.251983643E-1,1.003421021E1
9.877334743E1,7.693023682E-1,-6.279754639E-1,9.294403076E0
9.887350612E1,4.532623291E-1,-2.042083740E-1,9.464385986E0
9.897369533E1,8.602752686E-1,-8.689880371E-2,1.003421021E1
9.907385402E1,2.377929688E-1,-3.430786133E-1,9.078918457E0
9.917401272E1,5.993194580E-1,-2.943420410E-2,1.106372070E1
9.927420192E1,9.776000977E-1,-1.635131836E-1,9.806762695E0
9.937439113E1,1.300506592E-1,-1.706848145E-1,9.320739746E0
9.947458034E1,1.515960693E-1,3.656158447E-1,9.081314087E0
9.957476955E1,3.072204590E-1,6.624908447E-1,7.568176270E0
9.967492824E1,7.094421387E-1,7.798156738E-1,1.047474670E1
9.977508694E1,1.138015747E0,-1.060485840E-1,9.627197266E0
9.987527614E1,1.147583008E0,-5.097961426E-2,1.093920898E1
9.997546535E1,4.389038086E-1,1.022491455E-1,9.493118286E0
1.000756240E2,4.963684082E-1,7.008056641E-1,1.012278748E1
1.001758133E2,1.991271973E-2,-2.185668945E-1,9.521850586E0
1.002759719E2,5.346679688E-1,1.764678955E-1,9.821121216E0
1.003761612E2,6.064910889E-1,3.967437744E-1,1.014912415E1
1.004763198E2,-1.381072998E-1,-4.618835449E-2,8.975967407E0
1.005765091E2,2.593383789E-1,3.009643555E-1,1.034785461E1
1.006766983E2,1.173919678E0,4.350433350E-1,9.835494995E0
1.007768875E2,3.598937988E-1,4.805297852E-1,1.052980042E1
1.008770462E2,4.987640381E-1,3.967437744E-1,9.248916626E0
1.009772049E2,3.191986084E-1,1.908416748E-1,9.454818726E0
1.010773941E2,1.468048096E-1,1.884460449E-1,8.978363037E0
1.011775528E2,7.286071777E-1,8.875427246E-1,9.615219116E0
1.012777420E2,5.825500488E-1,4.302520752E-1,1.002941895E1
1.013779007E2,6.735382080E-1,5.906677246E-1,8.624023438E0
1.014780899E2,5.801544189E-1,1.112609863E0,9.751693726E0
1.015782791E2,9.967498779E-1,7.678375244E-1,9.945617676E0
1.016784683E2,1.171524048E0,3.177337646E-1,1.032868958E1
1.017786270E2,8.770446777E-1,8.037567139E-1,1.048191833E1
1.018787857E2,9.680175781E-1,3.919525146E-1,9.943222046E0
1.019789749E2,6.687469482E-1,2.482910156E-1,9.500305176E0
1.020791641E2,5.586090088E-1,5.236358643E-1,1.007969666E1
1.021793228E2,1.851196289E-1,3.464508057E-1,9.576919556E0
1.022795120E2,1.851196289E-1,-1.299896240E-1,9.524246216E0
1.023796707E2,6.807098389E-1,8.372650146E-1,9.670288086E0
1.024798599E2,6.495971680E-1,4.733581543E-1,9.986328125E0
1.025800186E2,1.013504028E0,4.757385254E-1,1.059924316E1
1.026802078E2,8.914031982E-1,5.020751953E-1,1.017068481E1
1.027803970E2,5.586090088E-1,5.260162354E-1,9.337493896E0
1.028805557E2,8.698577881E-1,5.427856445E-1,9.476364136E0
1.029807449E2,3.694763184E-1,-4.316558838E-1,8.796401978E0
1.030809036E2,7.501525879E-1,1.716766357E-1,1.003181458E1
1.031810928E2,9.345092773E-1,6.672821045E-1,1.011801147E1
1.032812515E2,2.234191895E-1,1.142272949E-1,9.100463867E0
1.033814407E2,4.125671387E-1,3.999328613E-2,9.555374146E0
1.034816299E2,1.755371094E-1,3.368835449E-1,9.691833496E0
1.035818496E2,6.974792480E-1,2.267456055E-1,9.287216187E0
1.036819778E2,4.269256592E-1,1.261901855E-1,9.177078247E0
1.037821365E2,3.598937988E-1,1.453399658E-1,9.809158325E0
1.038823257E2,6.998748779E-1,6.241912842E-1,1.014195251E1
1.039824844E2,4.748077393E-1,3.656158447E-1,9.145965576E0
1.040826736E2,-1.165466309E-1,2.075958252E-1,9.785217285E0
1.041828628E2,4.724273682E-1,4.015197754E-1,1.007250977E1
1.042830520E2,3.766479492E-1,4.541931152E-1,9.785217285E0
1.043832107E2,-1.189422607E-1,-4.618835449E-2,1.033348083E1
1.044833999E2,-9.979248047E-2,-6.533813477E-2,9.461990356E0
1.045835586E2,4.915771484E-1,-9.407043457E-2,9.382980347E0
1.046837478E2,1.587829590E-1,6.744689941E-1,9.959991455E0
1.047839065E2,2.497558594E-1,2.004089355E-1,9.052581787E0
1.048840957E2,5.442504883E-1,-1.275939941E-1,9.833099365E0
1.049842849E2,9.345092773E-1,4.182891846E-1,1.004377747E1
1.050844436E2,8.483123779E-1,4.470214844E-1,9.418899536E0
1.051846328E2,9.440765381E-1,5.140533447E-1,1.024011230E1
1.052848220E2,7.046661377E-1,2.363281250E-1,9.385375977E0
1.053849807E2,3.479156494E-1,4.565887451E-1,9.593673706E0
1.054851699E2,1.164352417E0,3.823699951E-1,1.008688354E1
1.055853286E2,4.436950684E-1,-1.347808838E-1,9.423690796E0
1.056855484E2,1.420288086E-1,2.746276855E-1,9.699020386E0
1.057857071E2,9.464721680E-1,4.374389648E-1,9.866607666E0
1.058858657E2,3.622894287E-1,1.692810059E-1,8.772460938E0
1.059860550E2,3.311614990E-1,1.860504150E-1,8.267288208E0
1.060862136E2,4.628448486E-1,2.674560547E-1,9.038223267E0
1.061864029E2,9.536590576E-1,7.591247559E-2,1.016589355E1
1.062865615E2,7.525482178E-1,-2.520904541E-1,9.299194336E0
1.063867508E2,1.087738037E0,1.261901855E-1,1.017068481E1
1.064869400E2,1.662338257E0,-3.019790649E0,9.718170166E0
1.065871292E2,1.039840698E0,-5.382873535E0,8.298416138E0
1.066872879E2,1.454040527E0,-5.804244995E0,9.842666626E0
1.067874466E2,2.062164307E0,-5.232025146E0,1.034066772E1
1.068876358E2,2.349472046E0,-6.192108154E0,1.038615417E1
1.069877945E2,2.263290405E0,-5.174575806E0,1.077880859E1
1.070879837E2,1.300811768E0,-5.897613525E0,8.612045288E0
1.071881424E2,1.755371094E-1,-5.703689575E0,8.671905518E0
1.072883316E2,6.639556885E-1,-5.806640625E0,9.864227295E0
1.073885208E2,9.584503174E-1,-6.457855225E0,9.672683716E0
1.074887100E2,8.961944580E-1,-6.656585693E0,9.277633667E0
1.075888732E2,1.614456177E0,-6.278305054E0,1.030474854E1
1.076890319E2,1.722198486E0,-5.988601685E0,8.952026367E0
1.077892211E2,1.073364258E0,-5.940719604E0,9.833099365E0
1.078894103E2,1.916122437E0,-6.563201904E0,1.047235107E1
1.079895690E2,1.559387207E0,-6.809814453E0,9.552978516E0
1.080897582E2,1.329544067E0,-6.690093994E0,9.509872437E0
1.081899474E2,1.099700928E0,-6.898391724E0,1.013716125E1
1.082901366E2,1.341522217E0,-5.964660645E0,9.323135376E0
1.083902953E2,1.578536987E0,-5.732421875E0,1.022813416E1
1.084904845E2,1.820358276E0,-5.404418945E0,9.696624756E0
1.085906432E2,1.420532227E0,-5.097961426E0,9.454818726E0
1.086908324E2,1.609664917E0,-5.227249146E0,9.778030396E0
1.087909911E2,1.387008667E0,-5.421173096E0,9.201019287E0
1.088911803E2,9.512634277E-1,-5.313430786E0,9.311157227E0
1.089913695E2,5.753784180E-1,-5.670166016E0,9.454818726E0
1.090915282E2,1.303207397E0,-5.586380005E0,1.008927917E1
1.091917174E2,6.998748779E-1,-4.880081177E0,9.722961426E0
1.092919066E2,8.387298584E-1,-5.323013306E0,9.861831665E0
1.093920653E2,7.501525879E-1,-4.343780518E0,1.020898438E1
1.094922545E2,1.039840698E0,-3.936767578E0,9.768447876E0
1.095924132E2,8.674621582E-1,-4.269561768E0,9.471572876E0
1.096926024E2,6.926879883E-1,-3.625518799E0,9.950408936E0
1.097927611E2,7.286071777E-1,-3.678192139E0,9.964782715E0
1.098929503E2,5.274810791E-1,-3.287933350E0,1.034066772E1
1.099931090E2,8.459167480E-1,-2.385330200E0,9.828308105E0
1.100932982E2,1.047027588E0,-2.186599731E0,9.828308105E0
1.101934569E2,5.418548584E-1,-2.756423950E0,9.241729736E0
1.102936461E2,9.392852783E-1,-2.217727661E0,1.011322021E1
1.103938048E2,8.076019287E-1,-2.349411011E0,9.605651855E0
1.104939940E2,8.147888184E-1,-1.899307251E0,9.847457886E0
1.105941527E2,9.728088379E-1,-1.892120361E0,9.658325195E0
1.106943419E2,9.273223877E-1,-2.002258301E0,9.737319946E0
1.107945311E2,1.066177368E0,-1.717346191E0,9.749298096E0
1.108946898E2,8.770446777E-1,-2.253646851E0,9.766052246E0
1.109948790E2,1.006332397E0,-1.815505981E0,9.646347046E0
1.110950682E2,1.173919678E0,-1.810714722E0,9.677474976E0
1.111952574E2,8.387298584E-1,-1.765228271E0,9.959991455E0
1.112954161E2,9.536590576E-1,-1.528198242E0,9.339889526E0
1.113955748E2,1.300811768E0,-1.707763672E0,9.512268066E0
1.114957640E2,1.164352417E0,-1.695800781E0,9.720565796E0
1.115959227E2,7.812805176E-1,-1.928039551E0,9.631988525E0
1.116961119E2,1.197860718E0,-2.153091431E0,9.658325195E0
1.117963011E2,9.153442383E-1,-2.193786621E0,9.763656616E0
1.118964598E2,1.138015747E0,-1.722137451E0,9.497909546E0
1.119966490E2,1.365463257E0,-2.057327271E0,9.497909546E0
1.120968382E2,1.513900757E0,-1.978317261E0,9.569732666E0
1.121969969E2,1.214630127E0,-2.148300171E0,9.239334106E0
1.122971862E2,1.152374268E0,-2.193786621E0,9.782821655E0
1.123973448E2,9.488677979E-1,-1.987884521E0,1.005575562E1
1.124975341E2,1.157165527E0,-1.770019531E0,9.617614746E0
1.125976927E2,9.943542480E-1,-1.559326172E0,9.481140137E0
1.126978820E2,8.985900879E-1,-7.237548828E-1,1.023052979E1
1.127980712E2,1.056610107E0,-6.399536133E-1,9.406921387E0
1.128982299E2,1.044631958E0,2.243499756E-1,9.734939575E0
1.129984496E2,8.531036377E-1,9.497985840E-1,9.902526855E0
1.130986083E2,7.453613281E-1,8.070373535E-2,9.315948486E0
1.131987975E2,9.512634277E-1,4.685668945E-1,9.406921387E0
1.132989867E2,1.193069458E0,2.219543457E-1,9.564941406E0
1.133991454E2,1.195465088E0,-1.266479492E-2,9.785217285E0
1.134993346E2,6.256561279E-1,1.573181152E-1,9.404525757E0
1.135995238E2,1.011123657E0,7.582550049E-1,9.457199097E0
1.136996825E2,9.919586182E-1,2.004089355E-1,1.010124207E1
1.137998717E2,8.578948975E-1,1.860504150E-1,9.770843506E0
1.139000304E2,1.116455078E0,3.105468750E-1,9.016677856E0
1.140001891E2,1.451644897E0,1.213989258E-1,1.002462769E1
1.141003783E2,7.764892578E-1,2.052001953E-1,9.876190186E0
1.142005675E2,1.085342407E0,3.488464355E-1,9.066955566E0
1.143007567E2,1.035064697E0,1.213989258E-1,9.821121216E0
1.144009154E2,9.776000977E-1,2.818145752E-1,9.785217285E0
1.145010741E2,4.748077393E-1,3.464508057E-1,9.665496826E0
1.146012938E2,8.483123779E-1,6.098175049E-1,9.356643677E0
1.147014220E2,9.464721680E-1,3.751831055E-1,1.001026917E1
1.148016417E2,9.608306885E-1,1.213989258E-1,9.734939575E0
1.149018004E2,1.023086548E0,8.880615234E-3,9.323135376E0
1.150019591E2,1.489959717E0,4.422302246E-1,9.227355957E0
1.151021483E2,6.539916992E-2,7.821960449E-1,9.830703735E0
1.152023375E2,1.549804688E0,-1.156158447E-1,1.002462769E1
1.153024962E2,1.039840698E0,5.676269531E-2,9.124404907E0
1.154026854E2,8.578948975E-1,4.039154053E-1,9.562545776E0
1.155028441E2,1.377426147E0,2.626647949E-1,1.007730103E1
1.156030333E2,7.836608887E-1,3.919525146E-1,9.758880615E0
1.157032225E2,6.567687988E-1,2.650604248E-1,9.107650757E0
1.158033812E2,1.580932617E0,2.913970947E-1,9.313552856E0
1.159035704E2,1.133224487E0,3.273010254E-1,1.015870667E1
1.160037291E2,6.208648682E-1,4.446258545E-1,1.007011414E1
1.161039183E2,8.746490479E-1,2.890014648E-1,8.820343018E0
1.162041075E2,1.339126587E0,3.999328613E-2,9.816329956E0
1.163042662E2,1.078155518E0,3.775787354E-1,1.019940186E1
1.164044554E2,8.507080078E-1,1.740722656E-1,9.687042236E0
1.165046141E2,1.020690918E0,2.937927246E-1,9.095687866E0
1.166048033E2,9.895629883E-1,3.536376953E-1,9.603256226E0
1.167049925E2,1.154769897E0,2.722320557E-1,1.020419312E1
1.168051512E2,8.028259277E-1,2.147827148E-1,9.651138306E0
1.169053404E2,9.656219482E-1,4.781341553E-1,9.011886597E0
1.170054991E2,1.418136597E0,5.197143555E-2,9.976745605E0
1.171056578E2,9.632263184E-1,4.134979248E-1,1.011801147E1
1.172058776E2,7.309875488E-1,3.656158447E-1,9.801971436E0
1.173060362E2,1.128433228E0,1.716766357E-1,8.880203247E0
1.174061949E2,9.991455078E-1,3.009643555E-1,9.864227295E0
1.175063841E2,1.121246338E0,3.775787354E-1,1.027601624E1
1.176065933E2,7.094421387E-1,1.669006348E-1,9.174682617E0
1.177067825E2,1.236175537E0,4.661712646E-1,9.222579956E0
1.178069717E2,1.154769897E0,1.956176758E-1,1.003421021E1
1.179071304E2,9.967498779E-1,4.254608154E-1,1.009167480E1
1.180073196E2,6.831054688E-1,2.626647949E-1,9.287216187E0
1.181074783E2,1.118850708E0,2.626647949E-1,9.296798706E0
1.182076675E2,1.006332397E0,5.164489746E-1,1.041967773E1
1.183078567E2,8.339385986E-1,2.818145752E-1,9.742111206E0
1.184080154E2,7.118377686E-1,3.033599854E-1,9.217788696E0
