"Time (s)","Gyroscope x (rad/s)","Gyroscope y (rad/s)","Gyroscope z (rad/s)"
2.294921900E-2,3.112792969E-3,-1.506042480E-2,-9.567260742E-3
1.231384280E-1,-3.280639648E-3,-1.220703125E-3,9.613037109E-3
2.233276370E-1,-1.144409180E-3,5.172729492E-3,9.613037109E-3
3.234863280E-1,-7.537841797E-3,3.036499023E-3,1.083374023E-3
4.236450190E-1,9.918212891E-4,-8.682250977E-3,-7.431030273E-3
5.238342280E-1,2.044677734E-3,-6.546020508E-3,4.287719727E-3
6.239929200E-1,-2.212524414E-3,8.361816406E-3,6.408691406E-3
7.241821290E-1,-7.629394531E-5,-1.525878906E-4,-1.063537598E-2
8.243408200E-1,3.112792969E-3,-1.400756836E-2,1.525878906E-5
9.245300290E-1,9.918212891E-4,6.240844727E-3,4.287719727E-3
1.024688721E0,-7.629394531E-5,8.361816406E-3,7.476806641E-3
1.124877930E0,-7.537841797E-3,3.036499023E-3,-9.567260742E-3
1.225067139E0,2.044677734E-3,-1.719665527E-2,-3.173828125E-3
1.325225830E0,-7.629394531E-5,1.263427734E-2,3.219604492E-3
1.425384521E0,-1.144409180E-3,8.361816406E-3,4.287719727E-3
1.525573730E0,-4.348754883E-3,-1.525878906E-4,-7.431030273E-3
1.625732422E0,5.249023438E-3,-6.546020508E-3,-8.499145508E-3
1.725921631E0,9.918212891E-4,-2.288818359E-3,6.408691406E-3
1.826110840E0,-1.144409180E-3,1.049804688E-2,4.287719727E-3
1.926269531E0,-2.212524414E-3,-1.220703125E-3,-7.431030273E-3
2.026428223E0,2.044677734E-3,-1.612854004E-2,2.151489258E-3
2.126647949E0,-7.629394531E-5,1.156616211E-2,5.340576172E-3
2.226806640E0,-1.144409180E-3,4.104614258E-3,5.340576172E-3
2.326965332E0,-6.469726562E-3,-3.356933594E-3,-2.105712891E-3
2.427124023E0,2.044677734E-3,-1.080322266E-2,-4.241943359E-3
2.527313232E0,9.918212891E-4,7.308959961E-3,2.151489258E-3
2.627471924E0,-3.280639648E-3,7.308959961E-3,4.287719727E-3
2.727661133E0,-2.212524414E-3,-7.614135742E-3,-1.275634766E-2
2.827819824E0,2.044677734E-3,-9.735107422E-3,2.151489258E-3
2.928009033E0,2.044677734E-3,1.370239258E-2,6.408691406E-3
3.028228760E0,2.044677734E-3,1.049804688E-2,1.083374023E-3
3.128387451E0,-3.280639648E-3,4.104614258E-3,-7.431030273E-3
3.228546142E0,3.112792969E-3,-1.506042480E-2,3.219604492E-3
3.328704834E0,-7.629394531E-5,1.370239258E-2,4.287719727E-3
3.428894043E0,-5.401611328E-3,4.104614258E-3,1.083374023E-3
3.529083252E0,3.112792969E-3,-1.506042480E-2,-8.499145508E-3
3.629241943E0,-7.629394531E-5,-4.409790039E-3,2.151489258E-3
3.729431152E0,9.918212891E-4,1.156616211E-2,5.340576172E-3
3.829589844E0,-3.280639648E-3,5.172729492E-3,-1.052856445E-3
3.929779053E0,-7.171630859E-4,-8.651733398E-3,-6.546020508E-3
4.029968262E0,2.471923828E-3,-6.515502930E-3,4.119873047E-3
4.130126953E0,1.419067383E-3,1.373291016E-2,5.172729492E-3
4.230285644E0,-3.921508789E-3,-2.258300781E-3,9.155273438E-4
4.330474853E0,1.419067383E-3,-4.379272461E-3,-1.080322266E-2
4.430664062E0,-1.785278320E-3,-7.583618164E-3,4.119873047E-3
4.530822754E0,1.419067383E-3,1.159667969E-2,7.308959961E-3
4.631011963E0,-4.974365234E-3,5.203247070E-3,-1.525878906E-4
4.731170654E0,5.676269531E-3,-1.930236816E-2,-5.477905273E-3
4.831359863E0,3.509521484E-4,4.135131836E-3,1.983642578E-3
4.931518555E0,3.540039062E-3,5.203247070E-3,4.119873047E-3
5.031707764E0,-4.974365234E-3,9.460449219E-4,-1.525878906E-4
5.131866455E0,1.419067383E-3,-9.704589844E-3,-7.598876953E-3
5.232055664E0,2.471923828E-3,-8.651733398E-3,4.119873047E-3
5.332214355E0,2.471923828E-3,1.266479492E-2,4.119873047E-3
5.432373047E0,-3.921508789E-3,9.460449219E-4,-5.477905273E-3
5.532562256E0,1.419067383E-3,-1.290893555E-2,-4.409790039E-3
5.632751465E0,1.419067383E-3,6.271362305E-3,7.308959961E-3
5.732940674E0,2.471923828E-3,8.392333984E-3,5.172729492E-3
5.833099365E0,-2.853393555E-3,3.067016602E-3,-3.341674805E-3
5.933288574E0,3.540039062E-3,-1.397705078E-2,-7.598876953E-3
6.033447265E0,3.509521484E-4,9.460449219E-3,9.155273438E-4
6.133636474E0,-1.785278320E-3,6.271362305E-3,6.240844727E-3
6.233795166E0,-7.171630859E-4,-5.447387695E-3,-7.598876953E-3
6.333984375E0,5.676269531E-3,-9.704589844E-3,-2.273559570E-3
6.434143066E0,1.419067383E-3,6.271362305E-3,4.119873047E-3
6.534301758E0,1.419067383E-3,1.052856445E-2,3.051757812E-3
6.634490967E0,-3.921508789E-3,-2.258300781E-3,-8.666992188E-3
6.734680176E0,3.540039062E-3,-1.609802246E-2,1.983642578E-3
6.834838867E0,-7.171630859E-4,1.373291016E-2,5.172729492E-3
6.935028076E0,-2.853393555E-3,9.460449219E-4,1.049804688E-2
7.035186767E0,-3.921508789E-3,-5.447387695E-3,-6.546020508E-3
7.135345459E0,2.471923828E-3,-1.077270508E-2,-3.341674805E-3
7.235565185E0,2.471923828E-3,6.271362305E-3,5.172729492E-3
7.335723877E0,3.509521484E-4,8.392333984E-3,9.155273438E-4
7.435882568E0,3.509521484E-4,-7.583618164E-3,-8.666992188E-3
7.536076198E0,3.540039062E-3,-7.583618164E-3,9.155273438E-4
7.636234890E0,1.419067383E-3,1.585388184E-2,5.172729492E-3
7.736424099E0,-2.853393555E-3,4.135131836E-3,1.156616211E-2
7.836582790E0,-7.171630859E-4,6.271362305E-3,-1.292419434E-2
7.936771999E0,-7.171630859E-4,-1.609802246E-2,7.308959961E-3
8.036961208E0,1.419067383E-3,4.135131836E-3,1.370239258E-2
8.137119899E0,-8.178710938E-3,5.203247070E-3,1.983642578E-3
8.237278591E0,-3.921508789E-3,-8.651733398E-3,-2.273559570E-3
8.337467800E0,2.471923828E-3,-8.651733398E-3,3.051757812E-3
8.437626491E0,7.797241211E-3,-3.326416016E-3,1.902770996E-2
8.537815700E0,1.419067383E-3,6.271362305E-3,-1.220703125E-3
8.638004909E0,-6.042480469E-3,-1.190185547E-3,-1.506042480E-2
8.738163601E0,3.509521484E-4,-1.290893555E-2,1.049804688E-2
8.838352810E0,6.744384766E-3,-8.651733398E-3,3.051757812E-3
8.938511501E0,-2.853393555E-3,1.478576660E-2,-1.080322266E-2
9.038700710E0,-1.243591309E-2,8.392333984E-3,-2.252197266E-2
9.138889919E0,4.608154297E-3,-1.397705078E-2,1.983642578E-3
9.239048610E0,2.804565430E-2,-1.609802246E-2,1.902770996E-2
9.339207302E0,-4.974365234E-3,-2.258300781E-3,6.240844727E-3
9.439396511E0,-6.042480469E-3,3.067016602E-3,-7.598876953E-3
9.539585720E0,5.676269531E-3,-1.220703125E-4,-1.826477051E-2
9.639744411E0,6.744384766E-3,4.135131836E-3,1.583862305E-2
9.739933620E0,-6.042480469E-3,9.460449219E-4,9.155273438E-4
9.840092311E0,-7.171630859E-4,-6.515502930E-3,-4.409790039E-3
9.940281520E0,4.608154297E-3,-1.220703125E-4,9.155273438E-4
1.004044021E1,3.540039062E-3,1.052856445E-2,9.155273438E-4
1.014062942E1,-2.853393555E-3,9.460449219E-4,-8.666992188E-3
1.024078811E1,2.471923828E-3,-1.502990723E-2,-1.220703125E-3
1.034097732E1,4.608154297E-3,-1.220703125E-4,6.240844727E-3
1.044113601E1,3.509521484E-4,6.271362305E-3,5.172729492E-3
1.054135574E1,-2.853393555E-3,-1.220703125E-4,1.983642578E-3
1.064151443E1,1.419067383E-3,-1.397705078E-2,-4.409790039E-3
1.074167312E1,3.540039062E-3,5.203247070E-3,9.155273438E-4
1.084186233E1,-4.974365234E-3,8.392333984E-3,-2.273559570E-3
1.094202102E1,1.419067383E-3,-4.379272461E-3,-5.477905273E-3
1.104217971E1,6.744384766E-3,-1.609802246E-2,-1.525878906E-4
1.114236892E1,1.419067383E-3,7.339477539E-3,-1.525878906E-4
1.124252761E1,2.471923828E-3,7.231140137E-2,-7.791137695E-2
1.134271682E1,-1.029968262E-2,2.117919922E-2,-2.571105957E-2
1.144290603E1,3.540039062E-3,-8.651733398E-3,4.119873047E-3
1.154309524E1,3.509521484E-4,-3.326416016E-3,8.377075195E-3
1.164328445E1,3.509521484E-4,9.460449219E-4,9.445190430E-3
1.174344314E1,3.509521484E-4,-1.220703125E-4,-1.220703125E-3
1.184360183E1,4.608154297E-3,-7.583618164E-3,-1.220703125E-3
1.194379104E1,-6.042480469E-3,9.460449219E-3,-1.506042480E-2
1.204394973E1,2.471923828E-3,2.014160156E-3,1.049804688E-2
1.214413894E1,3.540039062E-3,4.135131836E-3,-1.506042480E-2
1.224429763E1,2.471923828E-3,-9.704589844E-3,-4.409790039E-3
1.234448684E1,-2.853393555E-3,6.271362305E-3,9.445190430E-3
1.244467605E1,3.509521484E-4,-1.190185547E-3,1.049804688E-2
1.254486526E1,-7.171630859E-4,9.460449219E-4,-8.666992188E-3
1.264499344E1,7.797241211E-3,-1.290893555E-2,3.051757812E-3
1.274518264E1,-1.785278320E-3,-1.190185547E-3,4.119873047E-3
1.284534134E1,-2.853393555E-3,9.460449219E-4,1.689147949E-2
1.294553054E1,-1.785278320E-3,-8.651733398E-3,-1.220703125E-3
1.304568924E1,6.744384766E-3,-2.355957031E-2,1.795959473E-2
1.314587844E1,3.509521484E-4,9.460449219E-3,7.308959961E-3
1.324606765E1,-1.785278320E-3,9.460449219E-4,7.308959961E-3
1.334622635E1,3.509521484E-4,-5.447387695E-3,6.240844727E-3
1.344638504E1,3.509521484E-4,-1.397705078E-2,1.263427734E-2
1.354660476E1,-1.785278320E-3,1.052856445E-2,1.983642578E-3
1.364676345E1,-2.853393555E-3,3.067016602E-3,4.119873047E-3
1.374695266E1,1.419067383E-3,-3.326416016E-3,-1.080322266E-2
1.384711135E1,1.419067383E-3,-5.447387695E-3,-5.477905273E-3
1.394730056E1,-2.853393555E-3,8.392333984E-3,9.155273438E-4
1.404745926E1,-9.246826172E-3,4.135131836E-3,-5.477905273E-3
1.414761795E1,-3.921508789E-3,-1.220703125E-4,-1.080322266E-2
1.424780716E1,4.608154297E-3,-6.515502930E-3,-1.220703125E-3
1.434799636E1,3.509521484E-4,1.159667969E-2,1.983642578E-3
1.444815506E1,-3.921508789E-3,-1.190185547E-3,3.051757812E-3
1.454834426E1,3.509521484E-4,-1.220703125E-4,-1.187133789E-2
1.464850296E1,5.676269531E-3,-8.651733398E-3,4.119873047E-3
1.474869217E1,-3.921508789E-3,9.460449219E-3,1.983642578E-3
1.484885086E1,-2.853393555E-3,5.203247070E-3,9.155273438E-4
1.494900955E1,5.676269531E-3,-9.704589844E-3,-6.546020508E-3
1.504919876E1,-2.853393555E-3,2.014160156E-3,-1.525878906E-4
1.514938797E1,-1.785278320E-3,7.339477539E-3,6.240844727E-3
1.524954666E1,-3.921508789E-3,4.135131836E-3,-3.341674805E-3
1.534973587E1,2.471923828E-3,3.067016602E-3,-7.598876953E-3
1.544989456E1,2.471923828E-3,-1.397705078E-2,9.155273438E-4
1.555008377E1,-1.785278320E-3,4.135131836E-3,-1.525878906E-4
1.565024246E1,-7.171630859E-4,4.135131836E-3,1.983642578E-3
1.575043167E1,1.419067383E-3,-2.258300781E-3,-1.080322266E-2
1.585059036E1,3.540039062E-3,-6.515502930E-3,-3.341674805E-3
1.595077957E1,3.509521484E-4,7.339477539E-3,3.051757812E-3
1.605096878E1,-2.853393555E-3,-1.220703125E-4,-1.525878906E-4
1.615112747E1,2.471923828E-3,-7.583618164E-3,-6.546020508E-3
1.625128616E1,1.419067383E-3,-1.190185547E-3,-3.341674805E-3
1.635147537E1,-7.171630859E-4,8.392333984E-3,1.983642578E-3
1.645163406E1,-2.853393555E-3,3.067016602E-3,9.155273438E-4
1.655182327E1,3.540039062E-3,-4.379272461E-3,-1.292419434E-2
1.665201248E1,1.419067383E-3,-8.651733398E-3,6.240844727E-3
1.675217117E1,-7.171630859E-4,4.135131836E-3,1.049804688E-2
1.685236038E1,-1.312255859E-3,6.607055664E-3,-2.517700195E-3
1.695254959E1,4.013061523E-3,-8.316040039E-3,-6.790161133E-3
1.705270828E1,1.892089844E-3,2.136230469E-4,4.928588867E-3
1.715289749E1,-4.501342773E-3,9.796142578E-3,3.875732422E-3
1.725308670E1,-5.569458008E-3,6.607055664E-3,-2.517700195E-3
1.735324539E1,2.944946289E-3,-1.922607422E-3,-9.979248047E-3
1.745340408E1,8.239746094E-4,-7.247924805E-3,5.996704102E-3
1.755353060E1,2.944946289E-3,6.607055664E-3,4.928588867E-3
1.765371981E1,-1.312255859E-3,6.607055664E-3,-4.653930664E-3
1.775390902E1,5.081176758E-3,-1.043701172E-2,-5.722045898E-3
1.785406771E1,-2.441406250E-4,2.349853516E-3,1.739501953E-3
1.795425692E1,8.239746094E-4,6.607055664E-3,5.996704102E-3
1.805444613E1,8.239746094E-4,-2.990722656E-3,-3.585815430E-3
1.815460482E1,1.679992676E-2,-2.748107910E-2,-1.423645020E-2
1.825479403E1,8.270263672E-3,-1.683044434E-2,6.459045410E-2
1.835495272E1,-5.569458008E-3,1.193237305E-2,6.713867188E-4
1.845511141E1,-4.501342773E-3,1.512145996E-2,-4.620361328E-2
1.855530062E1,1.466369629E-2,-7.247924805E-3,-2.169799805E-2
1.865545931E1,9.338378906E-3,3.402709961E-3,1.239013672E-2
1.875564852E1,-1.312255859E-3,4.470825195E-3,1.452636719E-2
1.885580721E1,-4.501342773E-3,1.281738281E-3,-4.653930664E-3
1.895599642E1,-2.441406250E-4,-1.576232910E-2,-9.979248047E-3
1.905618563E1,4.013061523E-3,2.044677734E-2,-1.104736328E-2
1.915637484E1,-2.380371094E-3,-8.544921875E-4,1.239013672E-2
1.925653353E1,-4.501342773E-3,-8.544921875E-4,9.201049805E-3
1.935672274E1,-1.312255859E-3,-1.257324219E-2,1.345825195E-2
1.945688143E1,6.149291992E-3,6.607055664E-3,-3.585815430E-3
1.955704012E1,-6.637573242E-3,8.728027344E-3,-3.585815430E-3
1.965722933E1,-2.441406250E-4,-8.544921875E-4,-9.979248047E-3
1.975738802E1,5.081176758E-3,-1.469421387E-2,-3.585815430E-3
1.985757723E1,2.944946289E-3,1.939392090E-2,1.739501953E-3
1.995773592E1,-5.569458008E-3,1.281738281E-3,6.713867188E-4
2.005795565E1,-2.441406250E-4,1.281738281E-3,-3.585815430E-3
2.015811434E1,1.892089844E-3,-1.789855957E-2,6.713867188E-4
2.025827303E1,1.892089844E-3,1.406860352E-2,3.875732422E-3
2.035846224E1,-5.569458008E-3,-1.922607422E-3,4.928588867E-3
2.045862093E1,2.944946289E-3,-1.364135742E-2,-1.316833496E-2
2.055881014E1,8.270263672E-3,-1.043701172E-2,-3.967285156E-4
2.065896883E1,6.149291992E-3,1.193237305E-2,1.239013672E-2
2.075915804E1,-2.380371094E-3,2.349853516E-3,1.239013672E-2
2.085931673E1,-2.441406250E-4,-1.922607422E-3,-9.979248047E-3
2.095950594E1,6.149291992E-3,-1.150512695E-2,2.807617188E-3
2.105972567E1,6.149291992E-3,2.151489258E-2,1.739501953E-3
2.115985384E1,-4.501342773E-3,-1.922607422E-3,-3.967285156E-4
2.126001254E1,1.892089844E-3,-2.990722656E-3,-1.316833496E-2
2.136020174E1,4.013061523E-3,-7.247924805E-3,-3.967285156E-4
2.146039095E1,8.239746094E-4,9.796142578E-3,1.345825195E-2
2.156054964E1,-5.569458008E-3,4.470825195E-3,-3.967285156E-4
2.166073885E1,2.944946289E-3,-1.150512695E-2,-7.843017578E-3
2.176089755E1,4.013061523E-3,-4.043579102E-3,3.875732422E-3
2.186108675E1,-2.441406250E-4,1.406860352E-2,7.064819336E-3
2.196124545E1,-2.380371094E-3,3.402709961E-3,-3.967285156E-4
2.206146517E1,8.239746094E-4,-7.247924805E-3,-1.316833496E-2
2.216162386E1,4.013061523E-3,-8.316040039E-3,6.713867188E-4
2.226178256E1,-2.380371094E-3,1.512145996E-2,2.807617188E-3
2.236197176E1,-3.448486328E-3,3.402709961E-3,-5.722045898E-3
2.246213046E1,4.013061523E-3,-2.322387695E-2,6.713867188E-4
2.256231966E1,-2.441406250E-4,1.512145996E-2,8.132934570E-3
2.266247836E1,-2.441406250E-4,6.607055664E-3,7.064819336E-3
2.276266756E1,-4.501342773E-3,1.281738281E-3,-2.517700195E-3
2.286282626E1,2.944946289E-3,-1.150512695E-2,-8.911132812E-3
2.296301546E1,5.081176758E-3,1.281738281E-3,2.807617188E-3
2.306317416E1,-2.380371094E-3,1.406860352E-2,5.996704102E-3
2.316336337E1,-3.448486328E-3,-1.922607422E-3,-8.911132812E-3
2.326355257E1,6.149291992E-3,-1.150512695E-2,-4.653930664E-3
2.336371127E1,8.239746094E-4,3.402709961E-3,2.807617188E-3
2.346386996E1,8.239746094E-4,9.796142578E-3,1.739501953E-3
2.356405917E1,-3.448486328E-3,4.470825195E-3,-5.722045898E-3
2.366421786E1,7.217407227E-3,-2.108764648E-2,-3.585815430E-3
2.376440707E1,8.239746094E-4,1.725769043E-2,2.807617188E-3
2.386459628E1,-2.380371094E-3,7.675170898E-3,1.025390625E-2
2.396475497E1,-5.569458008E-3,-2.990722656E-3,6.713867188E-4
2.406494418E1,5.081176758E-3,-8.316040039E-3,-1.104736328E-2
2.416510287E1,8.270263672E-3,-1.922607422E-3,1.239013672E-2
2.426529208E1,-5.569458008E-3,1.300048828E-2,-2.517700195E-3
2.436548128E1,-1.312255859E-3,-8.544921875E-4,-1.104736328E-2
2.446563998E1,-2.441406250E-4,-1.683044434E-2,2.807617188E-3
2.456582919E1,-2.380371094E-3,1.618957520E-2,5.996704102E-3
2.466598788E1,-3.448486328E-3,2.349853516E-3,7.064819336E-3
2.476617709E1,-2.441406250E-4,1.086425781E-2,-3.021240234E-2
2.486633578E1,9.155273438E-5,-8.804321289E-3,-2.464294434E-2
2.496652499E1,3.280639648E-3,7.186889648E-3,1.263427734E-2
2.506668368E1,-4.180908203E-3,3.982543945E-3,6.240844727E-3
2.516687289E1,-9.765625000E-4,-6.668090820E-3,-8.666992188E-3
2.526706210E1,3.280639648E-3,-9.857177734E-3,-2.273559570E-3
2.536725130E1,2.212524414E-3,1.144409180E-2,-1.525878906E-4
2.546741000E1,-6.301879883E-3,-3.479003906E-3,1.049804688E-2
2.556759920E1,9.155273438E-5,-3.479003906E-3,-2.273559570E-3
2.566775790E1,4.348754883E-3,-1.518249512E-2,5.172729492E-3
2.576794710E1,2.212524414E-3,2.423095703E-2,-4.409790039E-3
2.586810580E1,-4.180908203E-3,-2.410888672E-3,-1.220703125E-3
2.596826449E1,1.159667969E-3,-2.410888672E-3,-9.735107422E-3
2.606842318E1,3.280639648E-3,-9.857177734E-3,3.051757812E-3
2.616861239E1,1.159667969E-3,1.251220703E-2,9.155273438E-4
2.626877108E1,-5.233764648E-3,3.982543945E-3,7.308959961E-3
2.636896029E1,3.280639648E-3,-9.857177734E-3,-4.409790039E-3
2.646911898E1,9.155273438E-5,-6.668090820E-3,6.240844727E-3
2.656930819E1,3.280639648E-3,2.423095703E-2,3.051757812E-3
2.666946688E1,-1.269531250E-2,-4.531860352E-3,-4.409790039E-3
2.676968661E1,1.159667969E-3,-4.531860352E-3,-3.341674805E-3
2.686981478E1,4.348754883E-3,-1.199340820E-2,3.051757812E-3
2.697000399E1,8.605957031E-3,1.890563965E-2,9.155273438E-4
2.707019320E1,-1.269531250E-2,3.982543945E-3,-1.525878906E-4
2.717035189E1,1.181030273E-2,2.914428711E-3,-2.891540527E-2
2.727057162E1,3.280639648E-3,1.570129395E-2,7.308959961E-3
2.737073031E1,4.348754883E-3,9.307861328E-3,1.583862305E-2
2.747091952E1,-3.112792969E-3,7.934570312E-4,9.445190430E-3
2.757110407E1,5.416870117E-3,-2.746582031E-4,-2.784729004E-2
2.767129328E1,1.286315918E-2,9.307861328E-3,-1.506042480E-2
2.777145197E1,-9.765625000E-4,1.676940918E-2,6.240844727E-3
2.787164118E1,-3.112792969E-3,2.914428711E-3,-1.399230957E-2
2.797179987E1,4.348754883E-3,-4.531860352E-3,-2.784729004E-2
2.807198908E1,2.212524414E-3,-6.668090820E-3,-2.273559570E-3
2.817214777E1,2.212524414E-3,1.676940918E-2,-1.826477051E-2
2.827233698E1,-7.369995117E-3,7.934570312E-4,9.155273438E-4
2.837249567E1,-4.180908203E-3,-1.306152344E-2,6.240844727E-3
2.847268488E1,-2.044677734E-3,-1.199340820E-2,7.308959961E-3
2.857290460E1,-5.233764648E-3,9.307861328E-3,1.049804688E-2
2.867306330E1,-7.369995117E-3,-5.599975586E-3,9.155273438E-4
2.877325251E1,6.484985352E-3,-1.838684082E-2,-3.341674805E-3
2.887338068E1,-9.765625000E-4,-4.531860352E-3,5.172729492E-3
2.897356989E1,1.159667969E-3,6.118774414E-3,1.370239258E-2
2.907372858E1,-6.301879883E-3,7.186889648E-3,-1.080322266E-2
2.917391779E1,1.159667969E-3,-1.625061035E-2,-4.409790039E-3
2.927407648E1,3.280639648E-3,2.914428711E-3,4.119873047E-3
2.937426569E1,2.212524414E-3,1.037597656E-2,-1.525878906E-4
2.947445490E1,-8.438110352E-3,1.861572266E-3,-1.525878906E-4
2.957464411E1,2.212524414E-3,-8.804321289E-3,-1.187133789E-2
2.967480280E1,3.280639648E-3,-4.531860352E-3,5.172729492E-3
2.977496149E1,9.155273438E-5,1.144409180E-2,4.119873047E-3
2.987515070E1,-7.369995117E-3,3.982543945E-3,-1.080322266E-2
2.997530939E1,6.484985352E-3,-1.945495605E-2,-5.477905273E-3
3.007549860E1,1.159667969E-3,7.934570312E-4,6.240844727E-3
3.017565729E1,9.155273438E-5,6.118774414E-3,6.240844727E-3
3.027584650E1,-5.233764648E-3,2.914428711E-3,-1.525878906E-4
3.037603571E1,3.280639648E-3,-1.625061035E-2,-3.341674805E-3
3.047619440E1,7.537841797E-3,7.186889648E-3,1.983642578E-3
3.057635309E1,-9.506225586E-3,1.783752441E-2,1.983642578E-3
3.067654230E1,-7.369995117E-3,-1.306152344E-2,2.009582520E-2
3.077670099E1,3.280639648E-3,-2.157592773E-2,-5.477905273E-3
3.087689020E1,9.155273438E-5,-9.857177734E-3,1.902770996E-2
3.097704889E1,-2.044677734E-3,-2.746582031E-4,1.795959473E-2
3.107723810E1,-1.695251465E-2,-5.780029297E-2,6.240844727E-3
3.117742731E1,3.280639648E-3,-1.092529297E-2,5.172729492E-3
3.127761652E1,-4.180908203E-3,3.062438965E-2,9.155273438E-4
3.137777521E1,-2.044677734E-3,-2.410888672E-3,5.172729492E-3
3.147796442E1,8.605957031E-3,-4.531860352E-3,-2.891540527E-2
3.157812311E1,2.212524414E-3,-1.092529297E-2,-1.525878906E-4
3.167831232E1,-4.180908203E-3,3.982543945E-3,1.049804688E-2
3.177847101E1,-3.112792969E-3,8.239746094E-3,9.445190430E-3
3.187866022E1,-6.301879883E-3,1.861572266E-3,-1.187133789E-2
3.197881891E1,3.280639648E-3,-1.092529297E-2,-8.666992188E-3
3.207900812E1,7.537841797E-3,-2.746582031E-4,2.967834473E-2
3.217916681E1,9.155273438E-5,-4.531860352E-3,1.795959473E-2
3.227935602E1,-5.233764648E-3,-2.410888672E-3,-7.598876953E-3
3.237954523E1,1.159667969E-3,-1.199340820E-2,-3.341674805E-3
3.247970392E1,5.416870117E-3,1.676940918E-2,1.983642578E-3
3.257989313E1,-4.180908203E-3,2.914428711E-3,-3.341674805E-3
3.268005182E1,1.159667969E-3,-1.412963867E-2,-2.273559570E-3
3.278024103E1,9.155273438E-5,-5.599975586E-3,8.377075195E-3
3.288039972E1,3.280639648E-3,1.251220703E-2,7.308959961E-3
3.298055841E1,9.155273438E-5,-2.746582031E-4,9.445190430E-3
3.308074762E1,-1.269531250E-2,1.463317871E-2,-2.145385742E-2
3.318093683E1,-2.044677734E-3,-1.945495605E-2,2.009582520E-2
3.328109552E1,4.348754883E-3,2.914428711E-3,9.155273438E-4
3.338128473E1,-9.506225586E-3,5.050659180E-3,9.155273438E-4
3.348144342E1,1.159667969E-3,2.914428711E-3,-1.931762695E-2
3.358163263E1,9.155273438E-5,-1.092529297E-2,3.051757812E-3
3.368179132E1,4.348754883E-3,8.239746094E-3,5.172729492E-3
3.378198053E1,-4.180908203E-3,1.861572266E-3,4.119873047E-3
3.388216974E1,2.212524414E-3,7.934570312E-4,-1.506042480E-2
3.398232843E1,3.280639648E-3,-1.731872559E-2,-1.220703125E-3
3.408251764E1,9.155273438E-5,1.037597656E-2,1.156616211E-2
3.418267633E1,-5.233764648E-3,7.934570312E-4,-5.477905273E-3
3.428286554E1,-2.044677734E-3,7.934570312E-4,-7.598876953E-3
3.438302423E1,-9.765625000E-4,-1.092529297E-2,-1.525878906E-4
3.448321344E1,1.159667969E-3,1.251220703E-2,3.051757812E-3
3.458337213E1,-3.112792969E-3,7.934570312E-4,7.308959961E-3
3.468356134E1,2.212524414E-3,-1.092529297E-2,-9.735107422E-3
3.478375055E1,1.159667969E-3,-1.342773438E-3,4.119873047E-3
3.488390924E1,-3.112792969E-3,1.463317871E-2,9.155273438E-4
3.498406793E1,-4.180908203E-3,7.186889648E-3,-7.598876953E-3
3.508425714E1,9.155273438E-5,7.934570312E-4,-1.292419434E-2
3.518444635E1,2.212524414E-3,-1.412963867E-2,1.156616211E-2
3.528463556E1,2.212524414E-3,6.118774414E-3,8.377075195E-3
3.538476374E1,-9.765625000E-4,2.914428711E-3,-1.525878906E-4
3.548495294E1,1.159667969E-3,-7.736206055E-3,-1.292419434E-2
3.558514215E1,9.155273438E-5,-5.599975586E-3,1.983642578E-3
3.568533136E1,-9.765625000E-4,1.251220703E-2,8.377075195E-3
3.578552057E1,-5.233764648E-3,-2.410888672E-3,9.155273438E-4
3.588567926E1,4.348754883E-3,-6.668090820E-3,-1.187133789E-2
3.598586847E1,2.212524414E-3,7.934570312E-4,1.983642578E-3
3.608602716E1,-2.044677734E-3,9.307861328E-3,5.172729492E-3
3.618621637E1,1.159667969E-3,-2.746582031E-4,-1.220703125E-3
3.628637506E1,2.212524414E-3,-1.092529297E-2,-1.080322266E-2
3.638653376E1,2.212524414E-3,7.934570312E-4,4.119873047E-3
3.648669245E1,9.155273438E-5,1.037597656E-2,6.240844727E-3
3.658688166E1,-2.044677734E-3,3.982543945E-3,-2.273559570E-3
3.668707086E1,1.159667969E-3,-1.625061035E-2,-7.598876953E-3
3.678722956E1,-9.765625000E-4,2.914428711E-3,4.119873047E-3
3.688741876E1,-2.044677734E-3,8.239746094E-3,5.172729492E-3
3.698757746E1,-3.112792969E-3,3.982543945E-3,-3.341674805E-3
3.708776667E1,1.159667969E-3,-1.092529297E-2,-1.080322266E-2
3.718795587E1,9.155273438E-5,1.861572266E-3,3.051757812E-3
3.728811456E1,4.348754883E-3,1.251220703E-2,9.445190430E-3
3.738830377E1,1.159667969E-3,7.934570312E-4,6.240844727E-3
3.748846247E1,1.159667969E-3,7.934570312E-4,9.445190430E-3
3.758856166E1,1.159667969E-3,2.914428711E-3,1.049804688E-2
3.768875087E1,3.280639648E-3,5.050659180E-3,5.172729492E-3
3.778894008E1,2.212524414E-3,7.186889648E-3,8.377075195E-3
3.788909878E1,-2.044677734E-3,7.186889648E-3,9.445190430E-3
3.798928798E1,3.280639648E-3,5.050659180E-3,5.172729492E-3
3.808944668E1,1.159667969E-3,8.239746094E-3,5.172729492E-3
3.818963588E1,-7.369995117E-3,-1.342773438E-3,7.308959961E-3
3.828979458E1,-4.180908203E-3,1.861572266E-3,5.172729492E-3
3.838995327E1,3.280639648E-3,6.118774414E-3,-1.292419434E-2
3.849014248E1,-2.044677734E-3,-1.625061035E-2,-1.220703125E-3
3.859033168E1,9.155273438E-5,-5.599975586E-3,3.051757812E-3
3.869049038E1,1.159667969E-3,9.307861328E-3,1.049804688E-2
3.879067958E1,-3.112792969E-3,1.861572266E-3,9.445190430E-3
3.889083828E1,1.495361328E-3,6.179809570E-3,-1.417541504E-2
3.899102749E1,4.684448242E-3,-1.406860352E-2,7.324218750E-4
3.909121669E1,4.272460938E-4,4.043579102E-3,3.936767578E-3
3.919137539E1,-6.408691406E-4,9.368896484E-3,3.936767578E-3
3.929153408E1,-6.408691406E-4,2.975463867E-3,-1.403808594E-3
3.939172329E1,3.616333008E-3,-1.406860352E-2,-5.661010742E-3
3.949188198E1,3.616333008E-3,-2.349853516E-3,-6.729125977E-3
3.959207119E1,4.272460938E-4,2.001953125E-2,-7.781982422E-3
3.969229091E1,4.272460938E-4,-1.406860352E-2,-1.403808594E-3
3.979244960E1,2.548217773E-3,1.043701172E-2,-1.403808594E-3
3.989260830E1,3.616333008E-3,-1.300048828E-2,1.800537109E-3
3.999279751E1,-3.845214844E-3,1.922607422E-3,-3.356933594E-4
4.009295620E1,-1.708984375E-3,1.364135742E-2,-3.356933594E-4
4.019311489E1,1.495361328E-3,7.247924805E-3,-3.356933594E-4
4.029333461E1,-6.408691406E-4,1.043701172E-2,-1.403808594E-3
4.039352382E1,2.548217773E-3,-6.607055664E-3,7.324218750E-4
4.049368252E1,1.495361328E-3,9.368896484E-3,-3.356933594E-4
4.059384121E1,2.548217773E-3,-5.538940430E-3,-4.592895508E-3
4.069403042E1,4.272460938E-4,1.150512695E-2,1.800537109E-3
4.079421962E1,-1.708984375E-3,-5.538940430E-3,-5.661010742E-3
4.089434780E1,1.495361328E-3,7.247924805E-3,2.868652344E-3
4.099453701E1,-1.708984375E-3,-9.796142578E-3,-1.403808594E-3
4.109469570E1,3.616333008E-3,1.922607422E-3,-2.456665039E-3
4.119485439E1,2.548217773E-3,1.922607422E-3,7.125854492E-3
4.129504360E1,-6.408691406E-4,-2.136230469E-4,-1.403808594E-3
4.139523281E1,-6.408691406E-4,-3.417968750E-3,-6.729125977E-3
4.149539150E1,4.684448242E-3,8.544921875E-4,3.936767578E-3
4.159558071E1,4.272460938E-4,-2.365112305E-2,7.125854492E-3
4.169580044E1,-3.845214844E-3,4.043579102E-3,-3.356933594E-4
4.179592861E1,-6.408691406E-4,-1.832580566E-2,1.138305664E-2
4.189614834E1,-2.777099609E-3,5.111694336E-3,7.125854492E-3
4.199627651E1,1.426696777E-2,1.043701172E-2,-1.205444336E-2
4.209646572E1,1.495361328E-3,1.257324219E-2,1.138305664E-2
4.219662441E1,-6.408691406E-4,-5.538940430E-3,6.057739258E-3
4.229678310E1,4.684448242E-3,-8.743286133E-3,-3.356933594E-4
4.239697231E1,4.684448242E-3,-5.538940430E-3,-1.403808594E-3
4.249716152E1,-1.708984375E-3,-2.136230469E-4,2.868652344E-3
4.259732021E1,-1.708984375E-3,7.247924805E-3,-3.356933594E-4
4.269750942E1,4.272460938E-4,-2.136230469E-4,-2.456665039E-3
4.279766811E1,5.752563477E-3,5.111694336E-3,7.324218750E-4
4.289785732E1,-2.777099609E-3,-8.743286133E-3,1.800537109E-3
4.299801601E1,4.272460938E-4,8.300781250E-3,-4.592895508E-3
4.309820522E1,-2.777099609E-3,7.247924805E-3,-1.098632812E-2
4.319836391E1,4.272460938E-4,-8.743286133E-3,-5.661010742E-3
4.329855312E1,-4.898071289E-3,-3.417968750E-3,4.989624023E-3
4.339874233E1,2.548217773E-3,1.789855957E-2,-3.356933594E-4
4.349890102E1,1.495361328E-3,-7.675170898E-3,-6.729125977E-3
4.359909023E1,-6.408691406E-4,-5.538940430E-3,1.138305664E-2
4.369927944E1,3.616333008E-3,1.469421387E-2,-6.729125977E-3
4.379946865E1,-3.845214844E-3,-8.743286133E-3,7.125854492E-3
4.389959682E1,-6.408691406E-4,-4.470825195E-3,-5.661010742E-3
4.399978603E1,-2.777099609E-3,1.257324219E-2,3.936767578E-3
4.409994472E1,2.491760254E-2,-3.417968750E-3,4.989624023E-3
4.420013393E1,1.303863525E-1,1.683044434E-2,-3.549194336E-2
4.430029262E1,9.523010254E-2,1.789855957E-2,7.324218750E-4
4.440048183E1,-1.661682129E-2,7.247924805E-3,5.186462402E-2
4.450067104E1,-1.708984375E-3,-2.046203613E-2,-3.549194336E-2
4.460086025E1,1.000976562E-2,-5.241394043E-2,3.056335449E-2
4.470101894E1,4.684448242E-3,-1.618957520E-2,7.743835449E-2
4.480117763E1,1.000976562E-2,1.364135742E-2,8.193969727E-3
4.490136684E1,1.319885254E-2,-2.258300781E-2,2.630615234E-2
4.500152553E1,1.640319824E-2,-3.417968750E-3,2.842712402E-2
4.510171474E1,2.548217773E-3,-2.151489258E-2,-6.729125977E-3
4.520190395E1,-3.047180176E-2,-4.283142090E-2,-4.592895508E-3
4.530206264E1,1.747131348E-2,1.683044434E-2,-2.589416504E-2
4.540225185E1,-9.170532227E-3,6.796264648E-2,-4.592895508E-3
4.550244106E1,-1.129150391E-2,4.345703125E-2,3.936767578E-3
4.560259975E1,-2.514648438E-2,-1.281738281E-3,8.193969727E-3
4.570278896E1,-4.112243652E-2,-2.471923828E-2,1.458740234E-2
4.580294765E1,-2.088928223E-2,2.641296387E-2,1.884460449E-2
4.590313686E1,1.853942871E-2,1.469421387E-2,1.800537109E-3
4.600329555E1,1.426696777E-2,3.919982910E-2,6.057739258E-3
4.610348476E1,1.107788086E-2,1.896667480E-2,-5.661010742E-3
4.620367397E1,-1.708984375E-3,1.683044434E-2,2.630615234E-2
4.630383266E1,4.684448242E-3,8.300781250E-3,1.458740234E-2
4.640399135E1,1.319885254E-2,7.247924805E-3,4.989624023E-3
4.650418056E1,5.752563477E-3,8.544921875E-4,1.351928711E-2
4.660436977E1,-3.153991699E-2,-5.538940430E-3,2.523803711E-2
4.670452846E1,-8.799743652E-2,2.975463867E-3,5.186462402E-2
4.680468715E1,-2.514648438E-2,2.534484863E-2,2.523803711E-2
4.690487636E1,-4.858398438E-2,3.280639648E-2,3.588867188E-2
4.700503505E1,-1.768493652E-2,2.961730957E-2,1.328277588E-1
4.710522426E1,1.005554199E-1,-8.650207520E-2,2.203369141E-2
4.720541347E1,1.026916504E-1,-1.939392090E-2,1.991271973E-2
4.730557216E1,8.941650391E-3,1.576232910E-2,1.138305664E-2
4.740576137E1,1.107788086E-2,-2.365112305E-2,2.310180664E-2
4.750592006E1,5.752563477E-3,-2.471923828E-2,4.547119141E-2
4.760613090E1,1.853942871E-2,-1.725769043E-2,4.440307617E-2
4.770625908E1,-1.708984375E-3,1.896667480E-2,2.735900879E-2
4.780644829E1,-1.768493652E-2,-7.675170898E-3,3.163146973E-2
4.790663750E1,-3.153991699E-2,3.068542480E-2,2.203369141E-2
4.800679619E1,-1.708984375E-3,3.068542480E-2,4.989624023E-3
4.810698540E1,2.491760254E-2,4.452514648E-2,9.262084961E-3
4.820717461E1,3.877258301E-2,2.322387695E-2,3.163146973E-2
4.830733330E1,1.107788086E-2,2.322387695E-2,4.989624023E-3
4.840752251E1,1.533508301E-2,-1.406860352E-2,1.884460449E-2
4.850768120E1,8.941650391E-3,-3.216552734E-2,3.163146973E-2
4.860787041E1,3.616333008E-3,-2.151489258E-2,4.228210449E-2
4.870802910E1,-5.966186523E-3,-1.618957520E-2,3.588867188E-2
4.880821831E1,-2.726745605E-2,-4.470825195E-3,4.867553711E-2
4.890837700E1,-3.260803223E-2,6.179809570E-3,1.884460449E-2
4.900856621E1,-3.047180176E-2,2.975463867E-3,1.245117188E-2
4.910875542E1,-1.982116699E-2,-3.004455566E-2,-2.056884766E-2
4.920891411E1,-2.777099609E-3,-2.136230469E-4,-8.850097656E-3
4.930910332E1,-1.449584961E-2,1.922607422E-3,-1.417541504E-2
4.940926201E1,-6.669616699E-2,-4.815673828E-2,-4.933166504E-2
4.950945122E1,-2.726745605E-2,-3.323364258E-2,-1.631164551E-2
4.960960991E1,2.598571777E-2,-1.832580566E-2,6.358337402E-2
4.970982964E1,6.007385254E-2,-1.406860352E-2,-1.631164551E-2
4.980998833E1,3.616333008E-3,-4.470825195E-3,-1.403808594E-3
4.991017754E1,2.598571777E-2,-6.092834473E-2,8.193969727E-3
5.001033623E1,-2.777099609E-3,-5.348205566E-2,1.565551758E-2
5.011052544E1,-1.982116699E-2,-6.199645996E-2,4.014587402E-2
5.021068413E1,-4.898071289E-3,-8.743286133E-3,-2.456665039E-3
5.031087334E1,-2.301025391E-2,-3.750610352E-2,-6.729125977E-3
5.041106255E1,6.820678711E-3,-2.471923828E-2,-1.631164551E-2
5.051122124E1,3.237915039E-2,-2.684020996E-2,-3.442382812E-2
5.061137993E1,-1.342773438E-2,8.300781250E-3,-1.950073242E-2
5.071153862E1,3.616333008E-3,3.706359863E-2,-2.803039551E-2
5.081175835E1,2.066040039E-2,-2.365112305E-2,-7.781982422E-3
5.091191704E1,-4.431152344E-2,-3.417968750E-3,6.039428711E-2
5.101210625E1,-4.898071289E-3,-2.897644043E-2,8.193969727E-3
5.111223442E1,-2.777099609E-3,-2.151489258E-2,1.565551758E-2
5.121242363E1,1.000976562E-2,-2.258300781E-2,7.324218750E-4
5.131261284E1,1.533508301E-2,9.368896484E-3,-9.918212891E-3
5.141277153E1,1.853942871E-2,2.429199219E-2,-2.482604980E-2
5.151296074E1,1.107788086E-2,-1.281738281E-3,-3.356933594E-4
5.161311943E1,7.873535156E-3,1.896667480E-2,-2.377319336E-2
5.171330864E1,4.684448242E-3,-1.618957520E-2,-1.310729980E-2
5.181346733E1,-1.022338867E-2,-2.897644043E-2,-2.482604980E-2
5.191368706E1,-8.102416992E-3,-1.725769043E-2,-1.205444336E-2
5.201387627E1,-9.170532227E-3,-1.832580566E-2,-8.850097656E-3
5.211403496E1,-5.966186523E-3,-1.618957520E-2,-3.228759766E-2
5.221419365E1,1.640319824E-2,-4.708862305E-2,-4.592895508E-3
5.231435234E1,4.684448242E-3,-1.512145996E-2,-1.098632812E-2
5.241454155E1,6.820678711E-3,-4.470825195E-3,-1.417541504E-2
5.251470024E1,2.919006348E-2,-2.046203613E-2,-8.850097656E-3
5.261488945E1,-1.982116699E-2,6.050109863E-2,9.262084961E-3
5.271507866E1,-1.982116699E-2,1.789855957E-2,7.125854492E-3
5.281523735E1,-2.777099609E-3,-3.004455566E-2,-2.163696289E-2
5.291539604E1,-1.661682129E-2,2.534484863E-2,1.138305664E-2
5.301558525E1,-1.768493652E-2,9.368896484E-3,-7.781982422E-3
5.311577446E1,2.172851562E-2,-9.796142578E-3,-1.524353027E-2
5.321593315E1,3.616333008E-3,-2.136230469E-4,-3.524780273E-3
5.331612236E1,3.451538086E-2,4.878234863E-2,-1.950073242E-2
5.341628105E1,-7.034301758E-3,5.305480957E-2,3.163146973E-2
5.351647026E1,-9.170532227E-3,-5.134582520E-2,1.800537109E-3
5.361662895E1,7.873535156E-3,5.838012695E-2,6.057739258E-3
5.371681816E1,7.873535156E-3,-3.216552734E-2,3.588867188E-2
5.381697685E1,-4.898071289E-3,8.300781250E-3,1.458740234E-2
5.391716606E1,-2.514648438E-2,4.026794434E-2,1.565551758E-2
5.401732475E1,-3.047180176E-2,9.368896484E-3,3.056335449E-2
5.411751396E1,1.426696777E-2,-6.838989258E-2,1.351928711E-2
5.421770317E1,3.663635254E-2,-5.987548828E-2,4.989624023E-3
5.431786186E1,-1.342773438E-2,-1.056823730E-1,-3.524780273E-3
5.441805107E1,-2.940368652E-2,7.542419434E-2,-5.661010742E-3
5.451824028E1,2.279663086E-2,2.215576172E-2,-4.826354980E-2
5.461839897E1,2.548217773E-3,5.943298340E-2,7.125854492E-3
5.471858818E1,2.598571777E-2,-2.578735352E-2,2.098083496E-2
5.481874687E1,3.024291992E-2,-2.349853516E-3,2.098083496E-2
5.491893608E1,-1.449584961E-2,-1.512145996E-2,1.245117188E-2
5.501912529E1,-1.449584961E-2,9.368896484E-3,1.565551758E-2
5.511928398E1,3.131103516E-2,-3.855895996E-2,4.228210449E-2
5.521947319E1,-6.669616699E-2,2.854919434E-2,5.506896973E-2
5.531963188E1,-3.579711914E-2,2.429199219E-2,-3.335571289E-2
5.541982109E1,-9.170532227E-3,-1.406860352E-2,1.884460449E-2
5.551997978E1,5.262756348E-2,8.181762695E-2,4.867553711E-2
5.562016899E1,-1.556396484E-2,6.582641602E-2,3.269958496E-2
5.572032768E1,1.426696777E-2,3.813171387E-2,7.125854492E-3
5.582051689E1,6.007385254E-2,-4.920959473E-2,1.138305664E-2
5.592070610E1,-2.194213867E-2,-1.281738281E-3,2.098083496E-2
5.602086479E1,-2.621459961E-2,1.364135742E-2,-1.098632812E-2
5.612105400E1,1.426696777E-2,-1.939392090E-2,3.936767578E-3
5.622121269E1,1.426696777E-2,-1.512145996E-2,4.228210449E-2
5.632140190E1,2.598571777E-2,-5.538940430E-3,1.884460449E-2
5.642156059E1,-2.301025391E-2,-7.675170898E-3,3.907775879E-2
5.652174980E1,-1.982116699E-2,-2.684020996E-2,4.440307617E-2
5.662193901E1,3.558349609E-2,-3.111267090E-2,-1.524353027E-2
5.672209770E1,-1.342773438E-2,-6.607055664E-3,1.991271973E-2
5.682228691E1,-2.194213867E-2,-7.675170898E-3,1.800537109E-3
5.692247612E1,-9.170532227E-3,-1.300048828E-2,-8.850097656E-3
5.702266533E1,3.770446777E-2,-3.323364258E-2,1.777648926E-2
5.712282402E1,-3.472900391E-2,4.026794434E-2,1.800537109E-3
5.722301323E1,1.533508301E-2,-3.323364258E-2,-1.524353027E-2
5.732317192E1,-3.686523438E-2,1.020507812E-1,-1.310729980E-2
5.742333061E1,-3.686523438E-2,8.607482910E-2,4.760742188E-2
5.752351982E1,3.237915039E-2,2.108764648E-2,2.735900879E-2
5.762376424E1,-7.034301758E-3,2.748107910E-2,2.416992188E-2
5.772392293E1,1.747131348E-2,-1.086425781E-2,4.989624023E-3
5.782411214E1,-4.005432129E-2,-2.684020996E-2,2.416992188E-2
5.792427083E1,2.598571777E-2,-6.607055664E-3,2.523803711E-2
5.802446004E1,1.747131348E-2,-2.471923828E-2,1.031494141E-2
5.812461873E1,4.684448242E-3,1.789855957E-2,3.482055664E-2
5.822480794E1,5.752563477E-3,-9.796142578E-3,4.014587402E-2
5.832496664E1,2.548217773E-3,8.544921875E-4,2.949523926E-2
5.842515584E1,3.616333008E-3,-1.086425781E-2,2.949523926E-2
5.852534505E1,4.684448242E-3,1.469421387E-2,1.800537109E-3
5.862550374E1,-2.514648438E-2,-4.283142090E-2,3.802490234E-2
5.872569295E1,4.684448242E-3,2.748107910E-2,-5.661010742E-3
5.882588216E1,8.941650391E-3,1.043701172E-2,2.203369141E-2
5.892604085E1,-8.102416992E-3,2.322387695E-2,7.324218750E-4
5.902623006E1,3.131103516E-2,-1.193237305E-2,1.245117188E-2
5.912638875E1,-1.708984375E-3,-1.086425781E-2,2.098083496E-2
5.922654744E1,1.107788086E-2,-1.618957520E-2,2.416992188E-2
5.932673665E1,-2.194213867E-2,8.544921875E-4,2.735900879E-2
5.942692586E1,5.752563477E-3,-2.471923828E-2,3.936767578E-3
5.952711507E1,4.272460938E-4,-5.538940430E-3,1.138305664E-2
5.962727376E1,4.684448242E-3,-7.675170898E-3,2.868652344E-3
5.972746297E1,-8.102416992E-3,-1.300048828E-2,1.138305664E-2
5.982762166E1,2.705383301E-2,-9.796142578E-3,-3.356933594E-4
5.992781087E1,1.000976562E-2,5.111694336E-3,1.458740234E-2
6.002796956E1,-5.966186523E-3,-4.470825195E-3,-5.661010742E-3
6.012815877E1,-7.034301758E-3,-1.406860352E-2,4.335021973E-2
6.022834798E1,-5.966186523E-3,-1.086425781E-2,3.056335449E-2
6.032850667E1,-3.153991699E-2,1.922607422E-3,4.440307617E-2
6.042869588E1,-5.966186523E-3,4.666137695E-2,2.523803711E-2
6.052885457E1,-3.579711914E-2,3.068542480E-2,3.056335449E-2
6.062904378E1,2.066040039E-2,-7.675170898E-3,1.670837402E-2
6.072923299E1,2.919006348E-2,-8.743286133E-3,2.630615234E-2
6.082942220E1,-1.022338867E-2,2.215576172E-2,3.269958496E-2
6.092958089E1,-4.898071289E-3,-1.193237305E-2,3.695678711E-2
6.102973958E1,2.705383301E-2,-4.602050781E-2,3.482055664E-2
6.112992879E1,2.919006348E-2,-4.470825195E-3,3.163146973E-2
6.123011800E1,-6.408691406E-4,-4.495239258E-2,4.335021973E-2
6.133027669E1,2.548217773E-3,2.322387695E-2,1.351928711E-2
6.143043538E1,7.873535156E-3,-2.349853516E-3,2.416992188E-2
6.153062459E1,7.873535156E-3,-3.417968750E-3,4.547119141E-2
6.163078329E1,3.344726562E-2,3.601074219E-2,2.630615234E-2
6.173097249E1,-2.833557129E-2,-3.417968750E-3,4.335021973E-2
6.183116170E1,-6.408691406E-4,1.789855957E-2,7.324218750E-4
6.193132039E1,5.474853516E-2,-4.176330566E-2,3.375244141E-2
6.203150960E1,-1.129150391E-2,7.247924805E-3,4.760742188E-2
6.213169881E1,7.873535156E-3,3.068542480E-2,1.777648926E-2
6.223185750E1,-1.449584961E-2,-7.675170898E-3,4.228210449E-2
6.233201620E1,-1.022338867E-2,6.689453125E-2,3.375244141E-2
6.243220540E1,4.272460938E-4,-4.470825195E-3,3.056335449E-2
6.253239461E1,-1.768493652E-2,-6.092834473E-2,3.695678711E-2
6.263258382E1,1.000976562E-2,-1.193237305E-2,4.653930664E-2
6.273277303E1,3.616333008E-3,-8.743286133E-3,7.324218750E-4
6.283293172E1,1.495361328E-3,-4.388427734E-2,2.868652344E-3
6.293309041E1,-5.390930176E-2,-2.578735352E-2,2.523803711E-2
6.303327962E1,-9.170532227E-3,-2.136230469E-4,6.571960449E-2
6.313343831E1,-1.156921387E-1,8.544921875E-4,-2.589416504E-2
6.323362752E1,-6.562805176E-2,8.300781250E-3,-2.056884766E-2
6.333378622E1,-6.774902344E-2,-2.136230469E-4,4.760742188E-2
6.343397542E1,-8.102416992E-3,-6.945800781E-2,1.200408936E-1
6.353416463E1,1.000976562E-2,-1.618957520E-2,-2.909851074E-2
6.363432332E1,8.941650391E-3,2.108764648E-2,1.245117188E-2
6.373451253E1,4.302978516E-2,-8.743286133E-3,-6.729125977E-3
6.383467122E1,4.684448242E-3,1.469421387E-2,2.949523926E-2
6.393486043E1,-6.408691406E-4,1.896667480E-2,2.310180664E-2
6.403501912E1,-1.342773438E-2,7.247924805E-3,5.400085449E-2
6.413520833E1,-6.408691406E-4,3.494262695E-2,1.351928711E-2
6.423539754E1,-1.556396484E-2,-1.832580566E-2,4.228210449E-2
6.433555623E1,2.172851562E-2,1.469421387E-2,8.193969727E-3
6.443574544E1,-8.102416992E-3,-1.725769043E-2,2.523803711E-2
6.453593465E1,6.820678711E-3,1.683044434E-2,2.310180664E-2
6.463612386E1,-1.556396484E-2,-3.643798828E-2,1.031494141E-2
6.473628255E1,7.873535156E-3,-1.406860352E-2,3.056335449E-2
6.483647176E1,4.623413086E-2,3.706359863E-2,3.056335449E-2
6.493663045E1,3.024291992E-2,2.215576172E-2,2.310180664E-2
6.503678914E1,2.705383301E-2,1.576232910E-2,-2.056884766E-2
6.513697835E1,6.860351562E-2,8.300781250E-3,7.637023926E-2
6.523713704E1,3.877258301E-2,2.641296387E-2,3.588867188E-2
6.533732625E1,-1.708984375E-3,1.922607422E-3,6.358337402E-2
6.543751546E1,-3.793334961E-2,2.001953125E-2,5.506896973E-2
6.553767415E1,-2.940368652E-2,-2.790832520E-2,3.588867188E-2
6.563789388E1,-1.022338867E-2,-2.684020996E-2,2.203369141E-2
6.573805257E1,1.959228516E-2,5.111694336E-3,2.842712402E-2
6.583821126E1,4.516601562E-2,-3.417968750E-3,3.056335449E-2
6.593840047E1,2.386474609E-2,2.108764648E-2,2.949523926E-2
6.603855916E1,1.959228516E-2,1.922607422E-3,4.974365234E-2
6.613874837E1,3.616333008E-3,-7.675170898E-3,7.849121094E-2
6.623893758E1,6.820678711E-3,-3.750610352E-2,3.482055664E-2
6.633909627E1,-2.777099609E-3,-3.536987305E-2,5.506896973E-2
6.643928548E1,8.941650391E-3,-6.732177734E-2,-2.803039551E-2
6.653947469E1,2.172851562E-2,-4.283142090E-2,-4.187011719E-2
6.663963338E1,1.319885254E-2,-1.281738281E-3,-4.081726074E-2
6.673982259E1,8.941650391E-3,2.322387695E-2,-3.654479980E-2
6.683998128E1,2.812194824E-2,-4.470825195E-3,-1.417541504E-2
6.694017049E1,-5.966186523E-3,8.544921875E-4,3.936767578E-3
6.704032918E1,-5.709838867E-2,-2.258300781E-2,-2.056884766E-2
6.714054891E1,1.214599609E-2,9.368896484E-3,-2.456665039E-3
6.724067708E1,1.747131348E-2,1.469421387E-2,-1.417541504E-2
6.734086629E1,3.663635254E-2,2.534484863E-2,-3.761291504E-2
6.744102498E1,3.131103516E-2,-1.512145996E-2,-3.524780273E-3
6.754121206E1,1.426696777E-2,1.576232910E-2,-5.661010742E-3
6.764137075E1,1.107788086E-2,-1.618957520E-2,3.936767578E-3
6.774155996E1,-1.449584961E-2,-1.939392090E-2,1.245117188E-2
6.784171866E1,-1.708984375E-3,1.150512695E-2,2.098083496E-2
6.794190786E1,1.853942871E-2,-3.417968750E-3,2.868652344E-3
6.804206656E1,1.495361328E-3,2.748107910E-2,-4.592895508E-3
6.814225576E1,-1.875305176E-2,-3.111267090E-2,1.565551758E-2
6.824244497E1,6.820678711E-3,-2.684020996E-2,4.989624023E-3
6.834260366E1,-1.708984375E-3,7.247924805E-3,7.125854492E-3
6.844279287E1,1.000976562E-2,2.108764648E-2,7.125854492E-3
6.854295157E1,-2.088928223E-2,4.238891602E-2,-3.442382812E-2
6.864314077E1,-5.966186523E-3,-4.470825195E-3,-1.310729980E-2
6.874332998E1,3.770446777E-2,2.322387695E-2,2.098083496E-2
6.884348867E1,4.409790039E-2,3.706359863E-2,3.695678711E-2
6.894367788E1,-3.366088867E-2,4.043579102E-3,3.588867188E-2
6.904383658E1,-1.661682129E-2,-5.538940430E-3,1.458740234E-2
6.914402578E1,2.705383301E-2,8.544921875E-4,2.203369141E-2
6.924421499E1,-9.170532227E-3,-1.281738281E-3,2.098083496E-2
6.934437368E1,2.279663086E-2,1.257324219E-2,4.989624023E-3
6.944456289E1,-1.449584961E-2,4.026794434E-2,8.193969727E-3
6.954472158E1,-1.235961914E-2,4.043579102E-3,2.842712402E-2
6.964491079E1,1.214599609E-2,5.111694336E-3,3.907775879E-2
6.974506948E1,-2.194213867E-2,-1.300048828E-2,2.842712402E-2
6.984525869E1,4.684448242E-3,-4.470825195E-3,3.802490234E-2
6.994541738E1,1.319885254E-2,-1.193237305E-2,3.269958496E-2
7.004560659E1,-1.875305176E-2,1.576232910E-2,3.695678711E-2
7.014576529E1,-1.768493652E-2,1.922607422E-3,-3.356933594E-4
7.024595450E1,1.747131348E-2,-6.607055664E-3,2.949523926E-2
7.034614370E1,-4.898071289E-3,8.544921875E-4,3.163146973E-2
7.044630240E1,-6.408691406E-4,-8.743286133E-3,1.884460449E-2
7.054649160E1,1.426696777E-2,1.896667480E-2,1.884460449E-2
7.064665030E1,4.272460938E-4,1.364135742E-2,1.138305664E-2
7.074683950E1,1.214599609E-2,-4.470825195E-3,1.351928711E-2
7.084702871E1,-7.034301758E-3,5.111694336E-3,2.203369141E-2
7.094718741E1,-1.708984375E-3,7.247924805E-3,7.324218750E-4
7.104737661E1,-8.102416992E-3,4.043579102E-3,2.842712402E-2
7.114756582E1,-2.777099609E-3,-1.086425781E-2,4.121398926E-2
7.124772451E1,1.747131348E-2,-1.406860352E-2,1.670837402E-2
7.134791372E1,1.000976562E-2,6.179809570E-3,1.670837402E-2
7.144807241E1,-3.845214844E-3,2.001953125E-2,2.203369141E-2
7.154826162E1,-2.194213867E-2,8.544921875E-4,2.949523926E-2
7.164842032E1,1.495361328E-3,-2.349853516E-3,1.138305664E-2
7.174864004E1,2.548217773E-3,-1.086425781E-2,2.735900879E-2
7.184876822E1,8.941650391E-3,6.179809570E-3,2.203369141E-2
7.194895742E1,-2.777099609E-3,-8.743286133E-3,2.842712402E-2
7.204914663E1,1.000976562E-2,6.179809570E-3,1.991271973E-2
7.214933584E1,4.272460938E-4,4.043579102E-3,1.884460449E-2
7.224952505E1,5.752563477E-3,1.896667480E-2,2.310180664E-2
7.234965323E1,-2.777099609E-3,-6.607055664E-3,2.203369141E-2
7.244984243E1,-2.777099609E-3,1.150512695E-2,3.936767578E-3
7.255003164E1,2.548217773E-3,-2.258300781E-2,1.884460449E-2
7.265019033E1,-3.047180176E-2,2.975463867E-3,4.989624023E-3
7.275037954E1,3.024291992E-2,-2.790832520E-2,4.014587402E-2
7.285053824E1,2.172851562E-2,3.387451172E-2,3.936767578E-3
7.295072744E1,3.616333008E-3,4.133605957E-2,-2.482604980E-2
7.305091665E1,-1.875305176E-2,-1.086425781E-2,1.138305664E-2
7.315107534E1,1.214599609E-2,8.544921875E-4,1.565551758E-2
7.325126455E1,1.319885254E-2,1.150512695E-2,2.630615234E-2
7.335145376E1,-2.301025391E-2,-3.216552734E-2,6.571960449E-2
7.345161245E1,1.747131348E-2,-1.406860352E-2,3.802490234E-2
7.355177114E1,4.302978516E-2,3.494262695E-2,1.884460449E-2
7.365196035E1,-9.170532227E-3,-3.855895996E-2,-9.620666504E-2
7.375211904E1,-2.833557129E-2,-3.417968750E-3,-1.524353027E-2
7.385230825E1,-3.047180176E-2,-1.193237305E-2,2.949523926E-2
7.395249746E1,-2.777099609E-3,-2.151489258E-2,1.245117188E-2
7.405265616E1,1.107788086E-2,3.919982910E-2,9.262084961E-3
7.415287588E1,1.853942871E-2,1.043701172E-2,2.310180664E-2
7.425300406E1,4.272460938E-4,3.387451172E-2,-8.850097656E-3
7.435319326E1,1.495361328E-3,1.789855957E-2,4.989624023E-3
7.445338247E1,3.344726562E-2,-6.607055664E-3,1.458740234E-2
7.455354116E1,1.319885254E-2,3.280639648E-2,1.351928711E-2
7.465373037E1,-2.407836914E-2,7.247924805E-3,1.138305664E-2
7.475388907E1,4.272460938E-4,-1.618957520E-2,1.565551758E-2
7.485407827E1,-5.966186523E-3,1.922607422E-3,9.262084961E-3
7.495426748E1,2.598571777E-2,2.854919434E-2,-3.524780273E-3
7.505442617E1,-4.898071289E-3,2.961730957E-2,1.777648926E-2
7.515461538E1,4.272460938E-4,1.922607422E-3,2.523803711E-2
7.525477408E1,2.548217773E-3,-1.406860352E-2,1.991271973E-2
7.535496328E1,-5.966186523E-3,-2.136230469E-4,8.193969727E-3
7.545512198E1,1.214599609E-2,1.257324219E-2,2.416992188E-2
7.555531118E1,3.770446777E-2,6.179809570E-3,7.324218750E-4
7.565550039E1,-1.129150391E-2,4.026794434E-2,1.458740234E-2
7.575565908E1,-2.621459961E-2,-6.607055664E-3,3.056335449E-2
7.585584829E1,-1.768493652E-2,-6.607055664E-3,4.989624023E-3
7.595600698E1,-1.556396484E-2,-1.725769043E-2,7.125854492E-3
7.605622671E1,1.853942871E-2,2.108764648E-2,2.949523926E-2
7.615638540E1,1.000976562E-2,1.576232910E-2,7.125854492E-3
7.625654409E1,-6.408691406E-4,-4.470825195E-3,2.416992188E-2
7.635673330E1,-9.170532227E-3,-2.258300781E-2,2.523803711E-2
7.645689200E1,-5.966186523E-3,1.922607422E-3,1.031494141E-2
7.655708120E1,-1.708984375E-3,-3.004455566E-2,1.458740234E-2
7.665727041E1,1.533508301E-2,-1.281738281E-3,4.989624023E-3
7.675742910E1,5.752563477E-3,2.429199219E-2,2.868652344E-3
7.685761831E1,-1.449584961E-2,1.576232910E-2,1.565551758E-2
7.695777700E1,1.319885254E-2,-1.193237305E-2,1.351928711E-2
7.705796621E1,-6.408691406E-4,1.043701172E-2,4.989624023E-3
7.715812491E1,4.623413086E-2,-8.743286133E-3,1.565551758E-2
7.725831411E1,-2.777099609E-3,3.706359863E-2,1.031494141E-2
7.735850332E1,1.747131348E-2,1.469421387E-2,1.670837402E-2
7.745866201E1,1.214599609E-2,-1.618957520E-2,1.138305664E-2
7.755889208E1,-5.390930176E-2,-3.111267090E-2,4.228210449E-2
7.765905077E1,-3.153991699E-2,-3.855895996E-2,2.868652344E-3
7.775923998E1,-1.129150391E-2,-3.323364258E-2,3.375244141E-2
7.785942919E1,2.705383301E-2,-1.725769043E-2,1.031494141E-2
7.795961840E1,1.000976562E-2,2.001953125E-2,1.670837402E-2
7.805977709E1,-7.034301758E-3,-2.136230469E-4,2.523803711E-2
7.815996630E1,1.495361328E-3,4.043579102E-3,1.884460449E-2
7.826012499E1,2.548217773E-3,-3.430175781E-2,9.262084961E-3
7.836031420E1,2.172851562E-2,8.544921875E-4,1.031494141E-2
7.846047289E1,4.272460938E-4,1.150512695E-2,-1.403808594E-3
7.856066210E1,-1.708984375E-3,1.789855957E-2,2.949523926E-2
7.866082079E1,5.049133301E-2,4.452514648E-2,1.138305664E-2
7.876101000E1,-3.260803223E-2,2.322387695E-2,3.482055664E-2
7.886119921E1,-1.129150391E-2,-2.684020996E-2,9.262084961E-3
7.896135790E1,-1.022338867E-2,-3.417968750E-3,1.884460449E-2
7.906154711E1,-2.301025391E-2,-2.136230469E-4,2.416992188E-2
7.916170580E1,-5.966186523E-3,2.748107910E-2,8.193969727E-3
7.926189501E1,3.131103516E-2,-1.281738281E-3,1.138305664E-2
7.936205370E1,2.548217773E-3,3.601074219E-2,2.310180664E-2
7.946224291E1,-1.982116699E-2,-2.136230469E-4,3.907775879E-2
7.956243212E1,1.495361328E-3,-2.151489258E-2,2.523803711E-2
7.966259081E1,6.820678711E-3,-9.796142578E-3,1.670837402E-2
7.976278002E1,1.959228516E-2,-1.512145996E-2,2.098083496E-2
7.986296923E1,-1.708984375E-3,7.247924805E-3,4.014587402E-2
7.996312792E1,3.131103516E-2,1.789855957E-2,1.800537109E-3
8.006331713E1,1.640319824E-2,-3.417968750E-3,5.186462402E-2
8.016347582E1,-3.153991699E-2,-2.258300781E-2,6.997680664E-2
8.026366503E1,-3.845214844E-3,2.429199219E-2,3.907775879E-2
8.036382372E1,-7.034301758E-3,5.624389648E-2,2.416992188E-2
8.046401293E1,3.770446777E-2,1.043701172E-2,1.138305664E-2
8.056420214E1,6.820678711E-3,-1.086425781E-2,1.458740234E-2
8.066439135E1,-1.022338867E-2,-2.136230469E-4,-1.417541504E-2
8.076455004E1,4.684448242E-3,-5.134582520E-2,2.310180664E-2
8.086470873E1,4.272460938E-4,7.247924805E-3,-1.403808594E-3
8.096492846E1,1.533508301E-2,1.922607422E-3,2.868652344E-3
8.106508715E1,-2.777099609E-3,2.215576172E-2,4.014587402E-2
8.116527636E1,-2.194213867E-2,-1.086425781E-2,7.324218750E-4
8.126543505E1,1.640319824E-2,-5.560302734E-2,2.310180664E-2
8.136562426E1,2.491760254E-2,-4.708862305E-2,1.565551758E-2
8.146578295E1,6.820678711E-3,2.108764648E-2,9.262084961E-3
8.156597216E1,-2.940368652E-2,2.534484863E-2,1.670837402E-2
8.166613085E1,-1.129150391E-2,-2.349853516E-3,1.031494141E-2
8.176632006E1,-6.408691406E-4,4.043579102E-3,7.125854492E-3
8.186650927E1,-4.898071289E-3,-3.216552734E-2,-3.356933594E-4
8.196666796E1,-7.034301758E-3,1.576232910E-2,-1.205444336E-2
8.206682665E1,-3.845214844E-3,2.429199219E-2,4.989624023E-3
8.216701586E1,2.172851562E-2,3.706359863E-2,2.523803711E-2
8.226717455E1,1.319885254E-2,4.043579102E-3,2.630615234E-2
8.236736376E1,4.684448242E-3,2.108764648E-2,6.057739258E-3
8.246755297E1,-2.088928223E-2,-1.512145996E-2,1.031494141E-2
8.256774218E1,-1.235961914E-2,-1.281738281E-3,1.351928711E-2
8.266790087E1,2.066040039E-2,1.469421387E-2,4.989624023E-3
8.276805956E1,4.684448242E-3,-2.136230469E-4,1.138305664E-2
8.286824877E1,-1.875305176E-2,1.789855957E-2,2.868652344E-3
8.296843798E1,-2.621459961E-2,-6.607055664E-3,3.936767578E-3
8.306859667E1,2.598571777E-2,5.198669434E-2,8.193969727E-3
8.316878588E1,1.495361328E-3,4.238891602E-2,4.440307617E-2
8.326897509E1,-3.366088867E-2,-3.855895996E-2,-1.205444336E-2
8.336913378E1,-1.556396484E-2,-5.348205566E-2,4.440307617E-2
8.346932299E1,6.433105469E-2,-7.159423828E-2,1.458740234E-2
8.356948168E1,1.000976562E-2,-2.349853516E-3,4.547119141E-2
8.366970141E1,-5.070495605E-2,3.494262695E-2,1.245117188E-2
8.376986010E1,2.066040039E-2,-2.258300781E-2,-2.270507812E-2
8.387001879E1,2.279663086E-2,-2.046203613E-2,2.098083496E-2
8.397017748E1,-3.845214844E-3,8.300781250E-3,1.245117188E-2
8.407036669E1,-6.408691406E-4,1.683044434E-2,1.458740234E-2
8.417052538E1,1.853942871E-2,-2.897644043E-2,2.416992188E-2
8.427071459E1,-1.342773438E-2,-1.281738281E-3,1.031494141E-2
8.437090380E1,-7.034301758E-3,-2.471923828E-2,1.138305664E-2
8.447109301E1,1.214599609E-2,1.683044434E-2,2.842712402E-2
8.457128222E1,-1.875305176E-2,3.706359863E-2,1.670837402E-2
8.467144091E1,-6.408691406E-4,-3.962707520E-2,1.884460449E-2
8.477159960E1,3.558349609E-2,2.961730957E-2,2.310180664E-2
8.487178881E1,-2.777099609E-3,-4.470825195E-3,3.056335449E-2
8.497197802E1,-1.129150391E-2,3.173828125E-2,2.523803711E-2
8.507213671E1,1.853942871E-2,-4.176330566E-2,1.670837402E-2
8.517232592E1,1.495361328E-3,-2.258300781E-2,3.482055664E-2
8.527248461E1,-5.966186523E-3,4.043579102E-3,1.138305664E-2
8.537267382E1,3.877258301E-2,-1.725769043E-2,1.351928711E-2
8.547283251E1,4.272460938E-4,3.173828125E-2,3.375244141E-2
8.557305224E1,-4.325866699E-2,-9.796142578E-3,-3.356933594E-4
8.567318041E1,3.984069824E-2,1.043701172E-2,3.269958496E-2
8.577340014E1,1.640319824E-2,-1.512145996E-2,1.670837402E-2
8.587358935E1,-2.301025391E-2,-1.281738281E-3,1.884460449E-2
8.597374804E1,-2.777099609E-3,-3.855895996E-2,9.262084961E-3
8.607393725E1,-4.898071289E-3,-5.538940430E-3,3.482055664E-2
8.617409594E1,-1.768493652E-2,1.043701172E-2,1.458740234E-2
8.627425463E1,2.598571777E-2,2.108764648E-2,1.884460449E-2
8.637441332E1,1.426696777E-2,1.896667480E-2,3.936767578E-3
8.647463305E1,3.616333008E-3,1.576232910E-2,1.351928711E-2
8.657479174E1,7.873535156E-3,-1.300048828E-2,-3.524780273E-3
8.667498095E1,1.214599609E-2,2.961730957E-2,2.098083496E-2
8.677513964E1,5.752563477E-3,-3.417968750E-3,2.868652344E-3
8.687532885E1,-2.514648438E-2,1.043701172E-2,2.203369141E-2
8.697551806E1,3.616333008E-3,-1.725769043E-2,1.565551758E-2
8.707567675E1,4.272460938E-4,-1.512145996E-2,3.269958496E-2
8.717583544E1,-2.940368652E-2,-2.136230469E-4,2.523803711E-2
8.727602465E1,-2.777099609E-3,-1.193237305E-2,2.098083496E-2
8.737618334E1,1.319885254E-2,6.179809570E-3,1.565551758E-2
8.747637255E1,1.533508301E-2,1.150512695E-2,4.989624023E-3
8.757650828E1,-3.793334961E-2,-1.512145996E-2,2.630615234E-2
8.767666697E1,2.491760254E-2,3.068542480E-2,2.949523926E-2
8.777685618E1,1.214599609E-2,1.576232910E-2,7.125854492E-3
8.787701487E1,-5.284118652E-2,2.001953125E-2,1.884460449E-2
8.797720408E1,-1.708984375E-3,-1.406860352E-2,1.884460449E-2
8.807736277E1,1.319885254E-2,-7.675170898E-3,5.718994141E-2
8.817755198E1,-1.235961914E-2,1.469421387E-2,3.375244141E-2
8.827774119E1,6.820678711E-3,6.179809570E-3,2.416992188E-2
8.837793040E1,1.495361328E-3,2.854919434E-2,1.458740234E-2
8.847808909E1,-3.845214844E-3,-7.675170898E-3,2.098083496E-2
8.857824778E1,5.752563477E-3,-2.349853516E-3,2.416992188E-2
8.867843699E1,2.491760254E-2,8.544921875E-4,2.203369141E-2
8.877862620E1,-1.708984375E-3,1.364135742E-2,2.310180664E-2
8.887878489E1,2.812194824E-2,-3.417968750E-3,2.868652344E-3
8.897897410E1,8.941650391E-3,8.544921875E-4,3.907775879E-2
8.907913279E1,-7.095336914E-2,-2.349853516E-3,1.991271973E-2
8.917932200E1,3.131103516E-2,1.043701172E-2,4.989624023E-3
8.927951121E1,1.533508301E-2,-3.643798828E-2,1.565551758E-2
8.937970042E1,-3.845214844E-3,2.322387695E-2,1.565551758E-2
8.947985911E1,1.107788086E-2,4.043579102E-3,1.458740234E-2
8.958004832E1,7.873535156E-3,3.173828125E-2,2.098083496E-2
8.968020701E1,2.705383301E-2,1.043701172E-2,2.842712402E-2
8.978036570E1,-2.833557129E-2,-1.406860352E-2,9.262084961E-3
8.988055491E1,-6.408691406E-4,1.043701172E-2,1.991271973E-2
8.998074412E1,1.214599609E-2,-1.193237305E-2,1.884460449E-2
9.008093333E1,5.752563477E-3,-2.349853516E-3,1.777648926E-2
9.018109202E1,-4.644775391E-2,3.813171387E-2,2.416992188E-2
9.028128123E1,-1.022338867E-2,-5.538940430E-3,1.884460449E-2
9.038143992E1,4.516601562E-2,-1.086425781E-2,1.777648926E-2
9.048162913E1,-1.129150391E-2,-2.151489258E-2,4.989624023E-3
9.058181834E1,8.941650391E-3,-2.790832520E-2,3.269958496E-2
9.068197703E1,-2.777099609E-3,1.364135742E-2,1.884460449E-2
9.078216624E1,2.919006348E-2,3.068542480E-2,4.335021973E-2
9.088232493E1,1.747131348E-2,2.975463867E-3,3.802490234E-2
9.098251414E1,-3.845214844E-3,4.043579102E-3,1.800537109E-3
9.108267283E1,3.616333008E-3,-2.046203613E-2,2.203369141E-2
9.118286204E1,-4.898071289E-3,8.300781250E-3,-3.015136719E-2
9.128302073E1,-1.129150391E-2,-5.134582520E-2,1.351928711E-2
9.138320994E1,1.319885254E-2,-3.216552734E-2,8.193969727E-3
9.148336863E1,-3.845214844E-3,1.043701172E-2,2.310180664E-2
9.158355784E1,1.495361328E-3,1.683044434E-2,1.138305664E-2
9.168371653E1,8.941650391E-3,-1.086425781E-2,2.630615234E-2
9.178390574E1,-1.235961914E-2,1.257324219E-2,2.416992188E-2
9.188412547E1,-1.556396484E-2,-2.258300781E-2,2.949523926E-2
9.198428416E1,5.474853516E-2,2.975463867E-3,1.800537109E-3
9.208444285E1,4.942321777E-2,3.068542480E-2,3.269958496E-2
9.218463206E1,-5.070495605E-2,3.601074219E-2,2.735900879E-2
9.228479075E1,-2.088928223E-2,-1.193237305E-2,-1.844787598E-2
9.238497996E1,2.279663086E-2,-2.790832520E-2,1.800537109E-3
9.248513865E1,1.747131348E-2,9.368896484E-3,2.203369141E-2
9.258532786E1,-1.768493652E-2,8.544921875E-4,1.991271973E-2
9.268548655E1,-1.875305176E-2,2.001953125E-2,1.991271973E-2
9.278567576E1,-1.708984375E-3,-1.300048828E-2,3.163146973E-2
9.288586497E1,2.548217773E-3,2.001953125E-2,7.125854492E-3
9.298602366E1,1.107788086E-2,1.150512695E-2,1.351928711E-2
9.308621287E1,-4.898071289E-3,-3.750610352E-2,1.351928711E-2
9.318640208E1,1.426696777E-2,9.368896484E-3,3.375244141E-2
9.328659129E1,7.873535156E-3,2.975463867E-3,2.735900879E-2
9.338671946E1,-2.621459961E-2,-2.365112305E-2,3.936767578E-3
9.348690867E1,7.873535156E-3,-1.193237305E-2,2.735900879E-2
9.358709788E1,-1.449584961E-2,-2.349853516E-3,1.670837402E-2
9.368725657E1,2.548217773E-3,-3.111267090E-2,-1.403808594E-3
9.378744578E1,2.386474609E-2,2.108764648E-2,7.125854492E-3
9.388760447E1,1.495361328E-3,6.179809570E-3,3.482055664E-2
9.398779368E1,-3.260803223E-2,-4.708862305E-2,9.262084961E-3
9.408798289E1,3.024291992E-2,-2.684020996E-2,1.245117188E-2
9.418814158E1,2.066040039E-2,-1.512145996E-2,2.310180664E-2
9.428833079E1,-1.449584961E-2,2.854919434E-2,2.203369141E-2
9.438848948E1,2.066040039E-2,-2.349853516E-3,1.458740234E-2
9.448867869E1,-1.708984375E-3,2.215576172E-2,2.203369141E-2
9.458883738E1,-9.170532227E-3,-8.743286133E-3,3.269958496E-2
9.468902659E1,1.426696777E-2,-1.281738281E-3,1.245117188E-2
9.478918528E1,-1.556396484E-2,6.179809570E-3,1.565551758E-2
9.488937449E1,-1.661682129E-2,5.111694336E-3,1.884460449E-2
9.498956370E1,1.533508301E-2,-8.743286133E-3,1.884460449E-2
9.508975291E1,-5.966186523E-3,-4.470825195E-3,2.949523926E-2
9.518991160E1,2.548217773E-3,1.364135742E-2,3.269958496E-2
9.529007029E1,2.386474609E-2,3.387451172E-2,2.523803711E-2
9.539029002E1,-1.661682129E-2,1.922607422E-3,4.653930664E-2
9.549044871E1,-7.034301758E-3,8.300781250E-3,1.670837402E-2
9.559060740E1,5.752563477E-3,-1.193237305E-2,2.735900879E-2
9.569079661E1,2.548217773E-3,-1.300048828E-2,2.842712402E-2
9.579095530E1,-4.898071289E-3,-3.417968750E-3,3.269958496E-2
9.589114451E1,1.853942871E-2,-7.675170898E-3,1.670837402E-2
9.599133372E1,-6.408691406E-4,-1.725769043E-2,3.482055664E-2
9.609149241E1,1.747131348E-2,1.789855957E-2,2.203369141E-2
9.619168162E1,1.426696777E-2,2.108764648E-2,1.031494141E-2
9.629184031E1,-1.661682129E-2,-2.136230469E-4,2.098083496E-2
9.639202952E1,-1.768493652E-2,-8.743286133E-3,1.670837402E-2
9.649221873E1,6.820678711E-3,8.300781250E-3,7.125854492E-3
9.659237742E1,-8.102416992E-3,-1.193237305E-2,2.416992188E-2
9.669256663E1,-2.940368652E-2,8.544921875E-4,1.458740234E-2
9.679275584E1,3.451538086E-2,1.896667480E-2,1.031494141E-2
9.689291453E1,1.000976562E-2,6.179809570E-3,2.630615234E-2
9.699310374E1,-4.898071289E-3,5.111694336E-3,1.991271973E-2
9.709326243E1,1.426696777E-2,-1.618957520E-2,1.777648926E-2
9.719345164E1,4.272460938E-4,9.368896484E-3,1.565551758E-2
9.729364085E1,-1.708984375E-3,-2.258300781E-2,2.630615234E-2
9.739379954E1,1.214599609E-2,-1.832580566E-2,2.203369141E-2
9.749398875E1,2.172851562E-2,3.601074219E-2,1.777648926E-2
9.759414821E1,-8.102416992E-3,1.683044434E-2,2.630615234E-2
9.769433742E1,8.941650391E-3,-3.417968750E-3,1.565551758E-2
9.779449611E1,8.941650391E-3,2.854919434E-2,2.310180664E-2
9.789468532E1,-1.875305176E-2,-4.470825195E-3,1.884460449E-2
9.799487453E1,1.747131348E-2,-2.349853516E-3,1.565551758E-2
9.809503322E1,-1.982116699E-2,1.364135742E-2,9.262084961E-3
9.819522243E1,-5.966186523E-3,5.111694336E-3,-4.592895508E-3
9.829538112E1,-3.845214844E-3,2.961730957E-2,2.203369141E-2
9.839557033E1,-2.726745605E-2,-1.939392090E-2,1.777648926E-2
9.849572902E1,-8.102416992E-3,-2.046203613E-2,1.458740234E-2
9.859591823E1,2.066040039E-2,-9.796142578E-3,3.375244141E-2
9.869607692E1,-4.898071289E-3,2.534484863E-2,1.565551758E-2
9.879626613E1,2.548217773E-3,4.043579102E-3,-2.456665039E-3
9.889645534E1,2.491760254E-2,6.179809570E-3,1.670837402E-2
9.899661403E1,-3.845214844E-3,-1.193237305E-2,2.203369141E-2
9.909680324E1,2.548217773E-3,-3.855895996E-2,2.523803711E-2
9.919696194E1,3.663635254E-2,-4.495239258E-2,2.203369141E-2
9.929715114E1,-1.708984375E-3,-1.193237305E-2,3.936767578E-3
9.939734035E1,-9.170532227E-3,9.368896484E-3,6.057739258E-3
9.949749904E1,7.873535156E-3,-6.413269043E-2,1.670837402E-2
9.959768825E1,-3.260803223E-2,2.961730957E-2,3.695678711E-2
9.969787746E1,2.812194824E-2,-1.832580566E-2,3.802490234E-2
9.979803615E1,1.000976562E-2,5.091857910E-2,3.936767578E-3
9.989822536E1,-1.342773438E-2,3.068542480E-2,7.125854492E-3
9.999838405E1,3.344726562E-2,3.494262695E-2,2.203369141E-2
1.000985733E2,-1.342773438E-2,-1.939392090E-2,3.802490234E-2
1.001987320E2,5.752563477E-3,-2.578735352E-2,2.416992188E-2
1.002989212E2,1.853942871E-2,-3.855895996E-2,2.098083496E-2
1.003990799E2,-2.621459961E-2,1.922607422E-3,1.245117188E-2
1.004992691E2,1.319885254E-2,-1.086425781E-2,1.991271973E-2
1.005994583E2,-3.845214844E-3,1.043701172E-2,4.121398926E-2
1.006996475E2,2.598571777E-2,2.748107910E-2,3.269958496E-2
1.007998367E2,2.705383301E-2,3.813171387E-2,4.014587402E-2
1.008999649E2,-2.726745605E-2,3.173828125E-2,1.031494141E-2
1.010001541E2,-2.777099609E-3,-1.281738281E-3,1.800537109E-3
1.011003128E2,-1.129150391E-2,-4.602050781E-2,2.949523926E-2
1.012005020E2,1.533508301E-2,-2.471923828E-2,2.416992188E-2
1.013006912E2,-2.726745605E-2,6.179809570E-3,2.310180664E-2
1.014008499E2,-1.768493652E-2,1.922607422E-3,2.310180664E-2
1.015010391E2,4.272460938E-4,-2.365112305E-2,4.653930664E-2
1.016011978E2,-6.408691406E-4,-2.897644043E-2,2.735900879E-2
1.017013870E2,1.747131348E-2,2.215576172E-2,-8.850097656E-3
1.018015762E2,1.214599609E-2,1.043701172E-2,3.056335449E-2
1.019017349E2,-1.342773438E-2,-1.086425781E-2,7.125854492E-3
1.020019241E2,-1.661682129E-2,1.896667480E-2,-1.310729980E-2
1.021020828E2,2.386474609E-2,-4.176330566E-2,1.458740234E-2
1.022022720E2,-1.342773438E-2,-4.069519043E-2,3.482055664E-2
1.023024307E2,-1.235961914E-2,2.322387695E-2,8.193969727E-3
1.024026199E2,1.214599609E-2,8.300781250E-3,3.375244141E-2
1.025028091E2,3.616333008E-3,-1.193237305E-2,1.991271973E-2
1.026029983E2,2.279663086E-2,3.706359863E-2,2.949523926E-2
1.027031570E2,-4.898071289E-3,6.179809570E-3,2.416992188E-2
1.028033157E2,-1.449584961E-2,3.280639648E-2,4.228210449E-2
1.029035049E2,-2.407836914E-2,8.544921875E-4,2.842712402E-2
1.030036941E2,8.941650391E-3,-5.538940430E-3,2.868652344E-3
1.031038528E2,1.959228516E-2,3.494262695E-2,1.031494141E-2
1.032040420E2,8.941650391E-3,-3.417968750E-3,4.989624023E-3
1.033042312E2,-1.342773438E-2,9.368896484E-3,1.565551758E-2
1.034043899E2,-3.845214844E-3,-2.349853516E-3,1.351928711E-2
1.035045486E2,-6.408691406E-4,-6.607055664E-3,1.991271973E-2
1.036047683E2,-3.845214844E-3,1.043701172E-2,8.193969727E-3
1.037049270E2,-1.449584961E-2,4.043579102E-3,1.991271973E-2
1.038050857E2,1.495361328E-3,4.043579102E-3,1.351928711E-2
1.039052749E2,2.548217773E-3,9.368896484E-3,2.098083496E-2
1.040054641E2,-7.034301758E-3,1.896667480E-2,2.203369141E-2
1.041056228E2,-4.898071289E-3,4.043579102E-3,2.630615234E-2
1.042057815E2,4.302978516E-2,-2.258300781E-2,4.228210449E-2
1.043060012E2,-7.034301758E-3,1.576232910E-2,3.695678711E-2
1.044061599E2,1.214599609E-2,-1.406860352E-2,4.014587402E-2
1.045063491E2,-1.556396484E-2,-3.323364258E-2,3.269958496E-2
1.046065078E2,1.319885254E-2,1.043701172E-2,6.057739258E-3
1.047066665E2,-6.408691406E-4,-2.790832520E-2,3.588867188E-2
1.048068557E2,-1.556396484E-2,-2.151489258E-2,1.884460449E-2
1.049070449E2,1.319885254E-2,8.300781250E-3,2.868652344E-3
1.050072036E2,1.747131348E-2,8.544921875E-4,1.777648926E-2
1.051073928E2,7.873535156E-3,-1.725769043E-2,1.458740234E-2
1.052075515E2,1.495361328E-3,3.068542480E-2,2.203369141E-2
1.053077407E2,-8.102416992E-3,1.043701172E-2,8.193969727E-3
1.054078994E2,1.495361328E-3,1.922607422E-3,2.416992188E-2
1.055081192E2,-1.708984375E-3,-5.538940430E-3,1.777648926E-2
1.056082779E2,-9.170532227E-3,1.922607422E-3,8.193969727E-3
1.057084671E2,1.000976562E-2,2.975463867E-3,3.163146973E-2
1.058086563E2,1.495361328E-3,2.641296387E-2,9.262084961E-3
1.059087844E2,-2.088928223E-2,6.179809570E-3,9.262084961E-3
1.060089737E2,-1.022338867E-2,1.922607422E-3,2.416992188E-2
1.061091629E2,-1.661682129E-2,-2.365112305E-2,1.565551758E-2
1.062093521E2,5.752563477E-3,8.300781250E-3,-8.850097656E-3
1.063095108E2,-2.621459961E-2,-1.725769043E-2,1.565551758E-2
1.064097000E2,1.959228516E-2,-8.743286133E-3,1.670837402E-2
1.065098892E2,-8.906555176E-2,6.179809570E-3,-6.105041504E-2
1.066100479E2,-7.414245605E-2,-5.538940430E-3,-6.851196289E-2
1.067102066E2,-3.153991699E-2,-5.134582520E-2,-4.614257812E-2
1.068103958E2,-4.898071289E-3,-1.184539795E-1,-2.056884766E-2
1.069105545E2,1.426696777E-2,1.469421387E-2,-3.228759766E-2
1.070107437E2,1.495361328E-3,8.607482910E-2,2.735900879E-2
1.071109329E2,3.616333008E-3,9.140014648E-2,2.416992188E-2
1.072110916E2,1.640319824E-2,2.108764648E-2,2.310180664E-2
1.073112808E2,-2.407836914E-2,1.896667480E-2,2.203369141E-2
1.074114700E2,-2.940368652E-2,-1.086425781E-2,-1.737976074E-2
1.075116287E2,1.214599609E-2,-1.939392090E-2,-4.293823242E-2
1.076118224E2,1.426696777E-2,1.683044434E-2,-3.868103027E-2
1.077119811E2,1.853942871E-2,-3.855895996E-2,-3.015136719E-2
1.078121703E2,-1.556396484E-2,-1.086425781E-2,1.138305664E-2
1.079123290E2,-8.102416992E-3,-5.538940430E-3,-6.729125977E-3
1.080125182E2,1.214599609E-2,-1.300048828E-2,-1.737976074E-2
1.081127074E2,1.959228516E-2,1.789855957E-2,-1.098632812E-2
1.082128661E2,-2.621459961E-2,1.469421387E-2,-1.417541504E-2
1.083130858E2,-1.768493652E-2,9.368896484E-3,-4.592895508E-3
1.084132445E2,1.640319824E-2,-1.281738281E-3,-7.781982422E-3
1.085134032E2,2.066040039E-2,8.300781250E-3,-2.589416504E-2
1.086135924E2,-6.408691406E-4,1.364135742E-2,-3.356933594E-4
1.087137511E2,4.684448242E-3,-8.743286133E-3,-3.015136719E-2
1.088139403E2,-2.777099609E-3,5.111694336E-3,-3.015136719E-2
1.089141295E2,-8.102416992E-3,1.150512695E-2,-1.631164551E-2
1.090142882E2,-6.408691406E-4,-7.675170898E-3,-8.850097656E-3
1.091144774E2,5.752563477E-3,-1.406860352E-2,-1.631164551E-2
1.092146361E2,4.272460938E-4,1.922607422E-3,1.565551758E-2
1.093148253E2,1.319885254E-2,8.544921875E-4,-3.524780273E-3
1.094150145E2,4.272460938E-4,1.576232910E-2,2.523803711E-2
1.095151732E2,2.548217773E-3,4.345703125E-2,3.907775879E-2
1.096153319E2,-5.966186523E-3,-2.349853516E-3,3.588867188E-2
1.097155211E2,8.941650391E-3,1.257324219E-2,5.612182617E-2
1.098157103E2,1.959228516E-2,9.368896484E-3,1.991271973E-2
1.099158690E2,1.533508301E-2,-2.046203613E-2,3.588867188E-2
1.100160582E2,1.426696777E-2,2.975463867E-3,5.506896973E-2
1.101162169E2,-3.845214844E-3,-6.607055664E-3,5.186462402E-2
1.102164366E2,-1.708984375E-3,1.150512695E-2,4.335021973E-2
1.103165953E2,1.319885254E-2,-1.193237305E-2,4.867553711E-2
1.104167540E2,1.107788086E-2,-5.538940430E-3,3.802490234E-2
1.105169127E2,7.873535156E-3,9.368896484E-3,4.014587402E-2
1.106171019E2,5.752563477E-3,-1.618957520E-2,2.949523926E-2
1.107172911E2,-2.777099609E-3,-1.086425781E-2,3.269958496E-2
1.108174498E2,4.684448242E-3,8.544921875E-4,2.203369141E-2
1.109176390E2,-6.408691406E-4,-1.832580566E-2,2.310180664E-2
1.110178282E2,4.684448242E-3,8.544921875E-4,1.565551758E-2
1.111179869E2,2.548217773E-3,1.469421387E-2,3.936767578E-3
1.112181761E2,1.214599609E-2,1.257324219E-2,4.989624023E-3
1.113183348E2,4.684448242E-3,-6.607055664E-3,2.310180664E-2
1.114185240E2,4.684448242E-3,6.179809570E-3,1.565551758E-2
1.115186827E2,6.820678711E-3,-1.281738281E-3,8.193969727E-3
1.116188719E2,-8.102416992E-3,-1.406860352E-2,1.991271973E-2
1.117190612E2,-9.170532227E-3,-6.607055664E-3,1.458740234E-2
1.118192198E2,-4.898071289E-3,-2.136230469E-4,4.989624023E-3
1.119194091E2,-6.408691406E-4,-3.417968750E-3,1.031494141E-2
1.120195677E2,-6.408691406E-4,-2.349853516E-3,7.324218750E-4
1.121197875E2,2.548217773E-3,7.247924805E-3,7.125854492E-3
1.122199462E2,-2.777099609E-3,-5.538940430E-3,3.936767578E-3
1.123201049E2,-5.966186523E-3,4.043579102E-3,-7.781982422E-3
1.124202941E2,1.495361328E-3,6.179809570E-3,-4.592895508E-3
1.125204528E2,1.495361328E-3,-7.675170898E-3,1.031494141E-2
1.126206420E2,7.873535156E-3,6.179809570E-3,4.989624023E-3
1.127208312E2,1.853942871E-2,8.544921875E-4,-5.661010742E-3
1.128209899E2,1.426696777E-2,-9.796142578E-3,-4.592895508E-3
1.129212096E2,3.237915039E-2,7.247924805E-3,9.262084961E-3
1.130213988E2,2.279663086E-2,1.922607422E-3,6.057739258E-3
1.131215575E2,-9.170532227E-3,-4.470825195E-3,-1.417541504E-2
1.132217467E2,1.640319824E-2,-2.365112305E-2,3.375244141E-2
1.133219054E2,-5.966186523E-3,1.150512695E-2,-1.417541504E-2
1.134220946E2,-8.102416992E-3,8.544921875E-4,-2.377319336E-2
1.135222838E2,4.684448242E-3,-2.471923828E-2,3.936767578E-3
1.136224425E2,2.548217773E-3,7.247924805E-3,2.203369141E-2
1.137226317E2,-7.034301758E-3,1.257324219E-2,-3.524780273E-3
1.138227904E2,6.820678711E-3,-2.046203613E-2,-2.456665039E-3
1.139229796E2,4.272460938E-4,8.300781250E-3,-4.592895508E-3
1.140231383E2,-1.342773438E-2,4.238891602E-2,-2.482604980E-2
1.141233275E2,6.820678711E-3,-1.939392090E-2,-2.456665039E-3
1.142235167E2,-1.708984375E-3,2.975463867E-3,9.262084961E-3
1.143236754E2,-2.777099609E-3,1.150512695E-2,7.125854492E-3
1.144238646E2,5.752563477E-3,-1.281738281E-3,-1.417541504E-2
1.145240538E2,6.820678711E-3,-3.430175781E-2,4.867553711E-2
1.146242125E2,6.820678711E-3,8.544921875E-4,2.735900879E-2
1.147244017E2,-6.408691406E-4,1.257324219E-2,1.351928711E-2
1.148245604E2,2.548217773E-3,-1.281738281E-3,-1.950073242E-2
1.149247191E2,3.616333008E-3,-1.086425781E-2,-5.661010742E-3
1.150249083E2,7.873535156E-3,6.179809570E-3,-1.403808594E-3
1.151250975E2,-9.170532227E-3,7.247924805E-3,-8.850097656E-3
1.152252562E2,-2.777099609E-3,2.108764648E-2,-5.572509766E-2
1.153254454E2,5.752563477E-3,-2.349853516E-3,7.125854492E-3
1.154256041E2,1.853942871E-2,2.975463867E-3,2.310180664E-2
1.155257933E2,-6.408691406E-4,4.043579102E-3,-5.661010742E-3
1.156259825E2,1.214599609E-2,2.975463867E-3,-1.310729980E-2
1.157261412E2,2.548217773E-3,-8.743286133E-3,7.324218750E-4
1.158263304E2,-1.708984375E-3,8.300781250E-3,-8.850097656E-3
1.159264891E2,-1.129150391E-2,1.469421387E-2,2.868652344E-3
1.160266783E2,1.495361328E-3,-1.512145996E-2,3.936767578E-3
1.161268675E2,1.000976562E-2,-9.796142578E-3,1.351928711E-2
1.162270262E2,4.272460938E-4,2.001953125E-2,-5.661010742E-3
1.163272154E2,-7.034301758E-3,6.179809570E-3,-1.403808594E-3
1.164273741E2,-1.708984375E-3,-1.086425781E-2,-1.950073242E-2
1.165275633E2,1.495361328E-3,-6.607055664E-3,7.125854492E-3
1.166277526E2,-2.777099609E-3,9.368896484E-3,9.262084961E-3
1.167279112E2,-3.845214844E-3,1.150512695E-2,-8.850097656E-3
1.168281005E2,6.820678711E-3,-2.151489258E-2,-4.592895508E-3
1.169282591E2,5.752563477E-3,4.043579102E-3,1.031494141E-2
1.170284178E2,-1.708984375E-3,1.789855957E-2,-6.729125977E-3
1.171286070E2,-9.170532227E-3,5.111694336E-3,7.324218750E-4
1.172288268E2,2.548217773E-3,-1.193237305E-2,-4.592895508E-3
1.173289549E2,6.820678711E-3,-4.470825195E-3,7.324218750E-4
1.174291136E2,-2.777099609E-3,1.257324219E-2,1.031494141E-2
1.175293028E2,-4.898071289E-3,8.544921875E-4,-1.417541504E-2
1.176295425E2,1.000976562E-2,-2.365112305E-2,4.989624023E-3
1.177297317E2,5.752563477E-3,5.111694336E-3,1.031494141E-2
1.178298904E2,-1.708984375E-3,1.043701172E-2,-1.403808594E-3
1.179300796E2,-6.408691406E-4,6.179809570E-3,-6.729125977E-3
1.180302688E2,-6.408691406E-4,-2.684020996E-2,3.936767578E-3
1.181304275E2,1.495361328E-3,1.469421387E-2,4.989624023E-3
1.182306167E2,-1.235961914E-2,9.368896484E-3,1.800537109E-3
1.183307754E2,2.548217773E-3,-1.406860352E-2,-1.310729980E-2
1.184309646E2,4.272460938E-4,-1.939392090E-2,1.245117188E-2
