"Time (s)","Gyroscope x (rad/s)","Gyroscope y (rad/s)","Gyroscope z (rad/s)"
4.296875000E-2,-4.568481445E-1,-1.508163452E0,4.507446289E-1
1.431579590E-1,4.763183594E-1,-7.113342285E-1,1.695098877E-1
2.433776860E-1,-1.085052490E-1,-1.091644287E0,6.192016602E-2
3.435668950E-1,-4.430084229E-1,-6.048126221E-1,3.761749268E-1
4.437561040E-1,-5.495300293E-1,-1.499481201E-1,1.013336182E-1
5.439758310E-1,-9.678649902E-2,2.369689941E-2,-3.343505859E-1
6.441650400E-1,4.063415527E-2,-1.083984375E-1,7.044982910E-2
7.443847660E-1,-5.204772949E-2,2.910766602E-1,-4.589843750E-1
8.446044930E-1,9.176635742E-2,2.165069580E-1,1.801757812E-1
9.447937020E-1,2.504882812E-1,3.006591797E-1,1.460876465E-1
1.045013428E0,-7.867431641E-2,-1.030731201E-1,-7.324218750E-3
1.145202637E0,-8.552551270E-1,-1.488800049E-1,-1.426086426E-1
1.245422364E0,5.200042725E-1,7.482910156E-2,1.812286377E-1
1.345611573E0,-1.127777100E-1,-2.607269287E-1,-6.697082520E-2
1.445831299E0,1.220703125E-3,1.184997559E-1,3.793792725E-1
1.546020508E0,-1.370239258E-2,4.606628418E-2,-1.998901367E-3
1.646209717E0,3.530883789E-2,-1.785278320E-2,-7.550048828E-2
1.746429444E0,-1.660308838E-1,5.520629883E-1,3.250427246E-1
1.846618653E0,-2.435302734E-2,6.905517578E-1,-8.934020996E-2
1.946838379E0,-2.033233643E-1,1.504516602E-1,-1.372833252E-1
2.047027588E0,-1.117095947E-1,1.409912109E-2,4.275512695E-2
2.147247315E0,1.931762695E-2,5.458068848E-2,-2.969360352E-2
2.247436524E0,4.489135742E-2,2.262878418E-2,-1.998901367E-3
2.347656250E0,-1.202239990E-1,4.179382324E-2,-8.508300781E-2
2.447845459E0,1.290435791E-1,-3.693847656E-1,-4.685821533E-1
2.548065186E0,-2.725524902E-1,-4.301147461E-1,-1.383514404E-1
2.648254395E0,6.086730957E-2,3.434753418E-2,-7.762145996E-2
2.748474122E0,2.291870117E-1,-3.321075439E-1,1.822967529E-1
2.848663331E0,2.025451660E-1,1.611175537E-1,-2.116394043E-2
2.948852540E0,-4.781494141E-1,1.493988037E-1,1.034698486E-1
3.049072266E0,1.525878906E-4,3.326110840E-1,6.512451172E-2
3.149261475E0,-9.039306641E-2,2.527160645E-1,-6.697082520E-2
3.249481202E0,6.052246094E-1,-2.404937744E-1,-8.934020996E-2
3.277008058E0,-3.290252686E-1,-1.659240723E-1,2.143859863E-2
3.377227784E0,-4.792175293E-1,-4.235839844E-2,-2.235717773E-1
3.477416993E0,-5.484619141E-1,3.656463623E-1,-2.256927490E-1
3.577636720E0,4.624786377E-1,1.201873779E0,6.405639648E-2
3.677825929E0,-8.377075195E-3,2.062606812E0,3.708496094E-1
3.778015138E0,-1.795959473E-2,2.220260620E0,-8.712463379E-1
3.878234864E0,-7.732391357E-1,-1.437850952E0,1.824935913E0
3.978454591E0,-7.867431641E-2,-2.438140869E0,6.989593506E-1
4.078643800E0,-6.269836426E-2,-1.201370239E0,6.435546875E-1
4.178863526E0,-3.343505859E-1,-6.857757568E-1,1.691772461E0
4.279052735E0,-1.872589111E0,-1.355819702E0,8.555450439E-1
4.379272462E0,-1.130096436E0,-1.883132935E0,1.039840698E0
4.479461671E0,-3.865356445E-1,1.238250732E-1,2.909545898E-1
4.579681397E0,3.303833008E-1,8.567352295E-1,9.471588135E-1
4.679870606E0,-7.753601074E-1,1.230636597E0,9.439697266E-1
4.780059815E0,-1.305862427E0,1.379776001E0,1.173248291E-1
4.880279542E0,-5.995941162E-1,2.272460938E0,-5.292968750E-1
4.980499269E0,-9.713745117E-1,3.294219971E-1,-2.033233643E-1
5.080688478E0,-6.997375488E-1,-4.791107178E-1,4.380798340E-2
5.180877687E0,-6.880187988E-1,-4.663238525E-1,2.632598877E-1
5.281097413E0,-1.191558838E-1,5.478057861E-1,9.386444092E-1
5.381317140E0,2.185211182E-1,4.615173340E-1,8.981628418E-1
5.481506349E0,-9.340820312E-1,4.082489014E-1,1.037704468E0
5.581726075E0,4.486236572E-1,7.992095947E-1,8.353118896E-1
5.681915284E0,-1.138626099E0,-3.489685059E-2,2.057342529E-1
5.782135011E0,-1.023574829E0,-1.155563354E0,4.411621094E-1
5.882324220E0,2.038574219E-2,4.179382324E-2,1.108016968E0
5.982543946E0,9.354553223E-1,6.926727295E-1,3.439880371E0
6.082763673E0,1.588745117E-1,4.103851318E-1,2.280868530E0
6.182973062E0,-8.222351074E-1,-5.089416504E-1,7.724609375E-1
6.283223306E0,-2.967834473E-2,7.376098633E-2,-6.256103516E-3
6.383381997E0,-3.500366211E-2,6.652832031E-3,-1.370239258E-2
6.483571206E0,-8.720397949E-2,5.032348633E-2,-4.653778076E-1
6.583790933E0,-7.655334473E-2,-2.639312744E-1,-1.114120483E0
6.683980142E0,5.661010742E-2,-1.254425049E-1,-1.734924316E-1
6.784199868E0,-1.468658447E-1,1.621704102E-1,-4.760284424E-1
6.884389077E0,1.567382812E-1,-2.022674561E0,-9.254455566E-2
6.984608804E0,-9.445190430E-3,1.516723633E-2,-7.324218750E-3
7.084798013E0,1.525878906E-4,1.516723633E-2,-6.256103516E-3
7.185017740E0,9.735107422E-3,1.304626465E-2,-7.324218750E-3
7.285206949E0,-5.172729492E-3,6.950378418E-2,3.303680420E-1
7.385426675E0,-1.798858643E-1,-1.925506592E-1,-2.009582520E-2
7.485615884E0,1.080322266E-2,-4.661560059E-2,-3.820800781E-2
7.585835611E0,9.735107422E-3,-4.013061523E-3,-5.187988281E-3
7.686055337E0,-9.155273438E-4,1.304626465E-2,-6.256103516E-3
7.786244546E0,5.477905273E-3,-1.252746582E-2,-7.324218750E-3
7.886433755E0,1.220703125E-3,5.584716797E-3,-5.187988281E-3
7.986653482E0,-5.172729492E-3,-4.013061523E-3,-9.307861328E-4
8.086873208E0,6.546020508E-3,-1.359558105E-2,-1.264953613E-2
8.187062417E0,3.341674805E-3,3.448486328E-3,1.373291016E-4
8.287282144E0,-9.155273438E-4,5.584716797E-3,-8.377075195E-3
8.387471353E0,-1.263427734E-2,-1.998901367E-2,-1.904296875E-2
8.487660562E0,-7.308959961E-3,-6.134033203E-3,-2.330017090E-2
8.587880288E0,9.735107422E-3,-5.065917969E-3,-2.436828613E-2
8.688069497E0,-1.477050781E-2,-2.105712891E-2,-2.648925781E-2
8.788289224E0,2.273559570E-3,-1.145935059E-2,-2.862548828E-2
8.888478433E0,-6.240844727E-3,1.409912109E-2,-2.542114258E-2
8.988698159E0,-6.240844727E-3,-4.013061523E-3,-2.116394043E-2
9.088917886E0,-8.377075195E-3,-5.065917969E-3,-2.436828613E-2
9.189107095E0,-3.051757812E-3,-1.876831055E-3,-1.797485352E-2
9.289326822E0,1.080322266E-2,-9.338378906E-3,-1.051330566E-2
9.389546548E0,-7.308959961E-3,-8.270263672E-3,-1.477050781E-2
9.489735757E0,-5.172729492E-3,3.448486328E-3,-1.690673828E-2
9.589924966E0,-3.051757812E-3,1.327514648E-3,-1.158142090E-2
9.690144693E0,-9.445190430E-3,3.448486328E-3,-1.158142090E-2
9.790333902E0,-9.155273438E-4,6.652832031E-3,-1.370239258E-2
9.890584146E0,-4.119873047E-3,7.705688477E-3,-1.158142090E-2
9.990803872E0,1.220703125E-3,-8.087158203E-4,-5.187988281E-3
1.009096256E1,-8.377075195E-3,6.652832031E-3,-5.187988281E-3
1.019118229E1,9.735107422E-3,-1.571655273E-2,-1.158142090E-2
1.029137150E1,-1.983642578E-3,8.773803711E-3,-5.187988281E-3
1.039159123E1,-1.049804688E-2,3.448486328E-3,-8.377075195E-3
1.049178044E1,7.598876953E-3,-2.317810059E-2,-1.690673828E-2
1.059200016E1,1.220703125E-3,4.516601562E-3,-5.187988281E-3
1.069218937E1,-1.902770996E-2,5.584716797E-3,-1.158142090E-2
1.079237858E1,1.826477051E-2,-2.317810059E-2,-1.158142090E-2
1.089259831E1,1.506042480E-2,1.091003418E-2,-3.051757812E-3
1.099281803E1,-1.156616211E-2,2.902221680E-2,-4.119873047E-3
1.109300724E1,-1.049804688E-2,3.009033203E-2,-5.187988281E-3
1.119322697E1,-1.156616211E-2,2.474975586E-2,-4.119873047E-3
1.129341618E1,5.477905273E-3,1.730346680E-2,-5.187988281E-3
1.139363590E1,3.341674805E-3,-1.876831055E-3,-9.445190430E-3
1.149382511E1,-6.240844727E-3,4.516601562E-3,-8.377075195E-3
1.159404484E1,-1.049804688E-2,1.197814941E-2,-1.158142090E-2
1.169423405E1,2.038574219E-2,-4.013061523E-3,-1.998901367E-3
1.179445378E1,-4.119873047E-3,8.773803711E-3,-5.187988281E-3
1.189464298E1,-4.119873047E-3,1.327514648E-3,-5.187988281E-3
1.199486271E1,-6.240844727E-3,2.049255371E-2,-7.324218750E-3
1.209505192E1,3.341674805E-3,1.623535156E-2,-9.307861328E-4
1.219527165E1,-1.689147949E-2,6.950378418E-2,1.373291016E-4
1.229546086E1,-4.119873047E-3,2.688598633E-2,-5.187988281E-3
1.239571110E1,-1.049804688E-2,7.705688477E-3,-4.119873047E-3
1.249586979E1,-4.119873047E-3,2.593994141E-4,-5.187988281E-3
1.259608952E1,2.273559570E-3,-1.145935059E-2,-7.324218750E-3
1.269630924E1,3.341674805E-3,-2.317810059E-2,-9.445190430E-3
1.279649845E1,1.525878906E-4,-4.013061523E-3,-9.307861328E-4
1.289671818E1,-9.155273438E-4,-5.065917969E-3,-4.119873047E-3
1.299690739E1,1.506042480E-2,-1.359558105E-2,2.273559570E-3
1.309712712E1,8.666992188E-3,-4.013061523E-3,-9.307861328E-4
1.319731632E1,1.220703125E-3,-8.270263672E-3,-5.187988281E-3
1.329753605E1,-1.583862305E-2,2.262878418E-2,-1.998901367E-3
1.339775578E1,1.187133789E-2,-7.202148438E-3,-6.256103516E-3
1.349794499E1,-9.155273438E-4,-4.013061523E-3,-7.324218750E-3
1.359813420E1,1.292419434E-2,-1.145935059E-2,-6.256103516E-3
1.369835392E1,-1.049804688E-2,5.584716797E-3,-7.324218750E-3
1.379854313E1,-1.049804688E-2,1.730346680E-2,-5.187988281E-3
1.389876286E1,6.546020508E-3,-1.145935059E-2,-7.324218750E-3
1.399895207E1,1.525878906E-4,1.409912109E-2,-1.051330566E-2
1.409917179E1,2.273559570E-3,-1.876831055E-3,-7.324218750E-3
1.419939152E1,-4.119873047E-3,-7.202148438E-3,-1.051330566E-2
1.429958073E1,3.341674805E-3,1.197814941E-2,-1.051330566E-2
1.439980045E1,-7.308959961E-3,2.262878418E-2,-1.158142090E-2
1.449998966E1,-5.172729492E-3,-1.145935059E-2,-1.051330566E-2
1.460020939E1,1.292419434E-2,-2.424621582E-2,-9.445190430E-3
1.470039860E1,-1.983642578E-3,-1.785278320E-2,-8.377075195E-3
1.480061833E1,-1.156616211E-2,-9.338378906E-3,-1.264953613E-2
1.490083805E1,-1.370239258E-2,-5.065917969E-3,-1.370239258E-2
1.500102726E1,-6.240844727E-3,-2.944946289E-3,-1.690673828E-2
1.510121647E1,-2.328491211E-2,9.841918945E-3,-1.904296875E-2
1.520143620E1,8.666992188E-3,1.091003418E-2,-1.264953613E-2
1.530162541E1,1.506042480E-2,-6.134033203E-3,-1.904296875E-2
1.540187565E1,-8.377075195E-3,-1.039123535E-2,-2.223205566E-2
1.550206486E1,-3.820800781E-2,-3.596496582E-2,-2.542114258E-2
1.560225407E1,1.220703125E-3,5.584716797E-3,-1.904296875E-2
1.570247379E1,1.826477051E-2,1.327514648E-3,-1.051330566E-2
1.580266300E1,1.506042480E-2,3.646850586E-2,-1.264953613E-2
1.590288273E1,-1.049804688E-2,3.434753418E-2,-1.904296875E-2
1.600307194E1,6.546020508E-3,1.197814941E-2,-6.256103516E-3
1.610326715E1,-1.477050781E-2,-8.087158203E-4,-1.583862305E-2
1.620348688E1,6.546020508E-3,-7.202148438E-3,-1.477050781E-2
1.630367609E1,6.546020508E-3,-5.065917969E-3,-1.583862305E-2
1.640389581E1,2.273559570E-3,2.156066895E-2,-1.264953613E-2
1.650408502E1,-6.240844727E-3,7.705688477E-3,-2.009582520E-2
1.660430475E1,-7.308959961E-3,-2.105712891E-2,-1.477050781E-2
1.670449396E1,-1.263427734E-2,-1.039123535E-2,-1.370239258E-2
1.680471369E1,2.273559570E-3,-1.252746582E-2,-1.477050781E-2
1.690493341E1,1.525878906E-4,-1.252746582E-2,-1.904296875E-2
1.700512262E1,-1.689147949E-2,3.434753418E-2,-1.690673828E-2
1.710531183E1,8.666992188E-3,1.304626465E-2,-1.690673828E-2
1.720553156E1,1.220703125E-3,1.942443848E-2,-1.051330566E-2
1.730572077E1,1.292419434E-2,1.327514648E-3,-1.690673828E-2
1.740597101E1,9.735107422E-3,-9.338378906E-3,-9.445190430E-3
1.750616022E1,1.080322266E-2,-5.065917969E-3,-9.445190430E-3
1.760634943E1,2.273559570E-3,-5.065917969E-3,-7.324218750E-3
1.770656915E1,-9.155273438E-4,2.380371094E-3,-6.256103516E-3
1.780675836E1,-8.377075195E-3,-1.876831055E-3,-1.998901367E-3
1.790697809E1,-8.377075195E-3,2.688598633E-2,-9.307861328E-4
1.800719782E1,-7.308959961E-3,2.380371094E-3,-3.051757812E-3
1.810738702E1,-1.263427734E-2,2.262878418E-2,-4.119873047E-3
1.820757623E1,1.220703125E-3,-1.876831055E-3,-6.256103516E-3
1.830779596E1,1.506042480E-2,-1.678466797E-2,-4.119873047E-3
1.840801569E1,-8.377075195E-3,2.581787109E-2,1.205444336E-3
1.850820490E1,1.220703125E-3,8.773803711E-3,-8.377075195E-3
1.860839411E1,8.666992188E-3,-2.210998535E-2,-6.256103516E-3
1.870861383E1,-1.983642578E-3,2.156066895E-2,-4.119873047E-3
1.880883356E1,-1.370239258E-2,1.942443848E-2,-5.187988281E-3
1.890908380E1,5.477905273E-3,-2.210998535E-2,-3.051757812E-3
1.900924249E1,3.341674805E-3,-6.134033203E-3,1.373291016E-4
1.910943170E1,-5.172729492E-3,6.652832031E-3,-8.377075195E-3
1.920965143E1,4.409790039E-3,4.516601562E-3,-7.324218750E-3
1.930984064E1,-1.156616211E-2,3.221130371E-2,-1.998901367E-3
1.941006036E1,1.525878906E-4,1.942443848E-2,-8.377075195E-3
1.951028009E1,7.598876953E-3,1.409912109E-2,-9.307861328E-4
1.961049982E1,-9.155273438E-4,1.091003418E-2,-7.324218750E-3
1.971068903E1,-3.051757812E-3,-1.145935059E-2,-1.158142090E-2
1.981087824E1,-1.156616211E-2,1.730346680E-2,-2.330017090E-2
1.991109796E1,1.525878906E-4,-2.944946289E-3,-1.797485352E-2
2.001128717E1,-9.892272949E-2,5.584716797E-3,-8.827209473E-2
2.011150690E1,-1.607055664E-1,-1.785278320E-2,-1.181030273E-1
2.021169611E1,-1.947937012E-1,-3.489685059E-2,-1.244964600E-1
2.031191583E1,-7.242279053E-1,1.184997559E-1,-7.199859619E-1
2.041210504E1,4.275512695E-2,2.049255371E-2,-1.490020752E-1
2.051235529E1,-2.778930664E-1,6.311035156E-2,-2.960052490E-1
2.061254450E1,1.567382812E-1,2.793579102E-1,-1.083236694E0
2.071273370E1,4.528808594E-1,6.426086426E-1,-1.447555542E0
2.081295343E1,5.128479004E-2,-1.371612549E-1,-1.555145264E0
2.091314264E1,2.464294434E-2,-4.013061523E-3,-2.438049316E-1
2.101336237E1,1.109313965E-1,3.059844971E-1,-1.690673828E-2
2.111355158E1,4.489135742E-2,-1.211853027E-1,-9.458160400E-1
2.121377130E1,8.666992188E-3,1.248931885E-1,-3.375549316E-1
2.131396051E1,-7.655334473E-2,2.218322754E-1,-8.062591553E-1
2.141421076E1,2.813720703E-1,-1.327056885E0,-1.553955078E-1
2.151436945E1,-1.200408936E0,-1.168334961E0,-1.183364868E0
2.161458917E1,-2.437179565E0,-2.119613647E0,-6.731109619E-1
2.171477838E1,-2.863281250E0,-1.418670654E0,-7.572631836E-1
2.181502863E1,-1.790557861E0,-1.392044067E0,-1.065124512E0
2.191521784E1,6.947021484E-1,-1.203491211E0,-2.032379150E0
2.201540704E1,5.189361572E-1,-4.950866699E-1,-1.982315063E0
2.211562677E1,1.333007812E-1,1.227569580E-1,-1.339965820E0
2.221581598E1,1.226272583E0,6.319580078E-1,-1.150344849E0
2.231603571E1,9.588928223E-1,1.176300049E0,-1.121582031E0
2.241625543E1,-3.713363647E0,1.522521973E0,-3.181457520E-2
2.251644464E1,1.451034546E0,-1.296997070E-1,1.154891968E0
2.261663385E1,1.546173096E-1,1.075103760E0,-5.239715576E-1
2.271685358E1,1.570343018E0,2.399230957E0,4.890899658E-1
2.281704279E1,9.098815918E-1,2.910766602E-1,-2.862548828E-2
2.291726251E1,7.500915527E-1,1.738891602E-1,-7.327575684E-1
2.301748224E1,8.907165527E-1,1.272186279E0,3.271789551E-1
2.311767145E1,1.010025024E0,9.685821533E-1,-4.248962402E-1
2.321789118E1,1.824951172E0,1.238098145E0,-2.736358643E-1
2.331808039E1,-2.491302490E-1,1.227569580E-1,6.405639648E-2
2.341830011E1,1.727142334E-1,-1.233322144E0,-3.051757812E-3
2.351851984E1,-9.999084473E-2,-6.825714111E-1,1.705780029E-1
2.361870905E1,-1.660308838E-1,5.190429688E-1,-3.074645996E-2
2.371892877E1,-8.360900879E-1,1.003875732E-1,-5.133209229E-1
2.381911798E1,-1.347412109E0,6.639099121E-1,-7.753753662E-1
2.391933771E1,2.941589355E-1,2.601776123E-1,-4.779052734E-2
2.401952692E1,1.876373291E-1,-6.229248047E-1,-2.991943359E-1
2.411974665E1,5.477905273E-3,1.696319580E-1,-1.394042969E-1
2.421993585E1,3.772583008E-1,1.942443848E-2,-2.009582520E-2
2.432015558E1,2.464294434E-2,8.760070801E-2,8.323669434E-2
2.442037531E1,-3.051757812E-3,-1.126556396E-1,1.066589355E-1
2.452056452E1,4.273223877E-1,-3.587341309E-1,-2.672424316E-1
2.462078424E1,-1.596374512E-1,3.114318848E-2,-2.065277100E-1
2.472097345E1,1.855010986E-1,1.089172363E-1,9.719848633E-3
2.482119318E1,-6.376647949E-2,-1.105346680E-1,6.405639648E-2
2.492138239E1,5.767822266E-2,-1.190490723E-1,-2.436828613E-2
2.502160211E1,9.176635742E-2,-3.915405273E-2,-5.738830566E-2
2.512179132E1,3.636169434E-2,-1.020050049E-1,-9.307861328E-4
2.522204157E1,6.405639648E-2,2.902221680E-2,-9.307861328E-4
2.532223078E1,1.290435791E-1,3.114318848E-2,3.103637695E-2
2.532226129E1,-2.746887207E-1,-5.845794678E-1,-7.336425781E-2
2.542248102E1,-4.035797119E-1,-7.997589111E-1,-3.098602295E-1
2.552267023E1,-7.114562988E-1,-8.221282959E-1,-4.035949707E-1
2.562288996E1,4.219970703E-1,1.557769775E-1,2.643280029E-1
2.572310968E1,2.100067139E-1,-1.041412354E-1,1.109313965E-1
2.582332941E1,2.590026855E-1,4.689788818E-1,3.570098877E-1
2.592348810E1,2.302398682E-1,5.797576904E-1,3.103637695E-2
2.602370783E1,-1.276855469E-1,6.394195557E-1,1.024017334E-1
2.612389704E1,3.474273682E-1,1.461944580E-1,-1.053161621E-1
2.622411676E1,2.526092529E-1,1.461944580E-1,-5.187988281E-3
2.632430597E1,9.388732910E-2,2.591094971E-1,2.163848877E-1
2.642452570E1,1.333007812E-1,1.696319580E-1,1.503448486E-1
2.652474542E1,8.110046387E-2,8.334350586E-2,7.151794434E-2
2.662493463E1,1.024169922E-1,2.718963623E-1,6.831359863E-2
2.672515436E1,1.045379639E-1,-1.998901367E-2,3.422546387E-2
2.682534357E1,-1.159667969E-1,-2.106628418E-1,2.038574219E-2
2.692556330E1,-2.967834473E-2,1.153106689E-1,-5.525207520E-2
2.702578302E1,2.078704834E-1,3.443298340E-1,6.724548340E-2
2.712597223E1,4.168701172E-2,1.643066406E-1,2.250671387E-2
2.722619196E1,-1.713562012E-1,-1.446228027E-1,-3.395080566E-2
2.732641168E1,-2.221679688E-2,-8.070373535E-2,-1.202392578E-1
2.742660089E1,-1.255493164E-1,-4.235839844E-2,2.273559570E-3
2.752679010E1,-1.468658447E-1,-1.968231201E-1,-6.910705566E-2
2.762700983E1,1.399230957E-2,-1.446228027E-1,-5.187988281E-3
2.772722956E1,4.168701172E-2,1.131744385E-1,8.323669434E-2
2.782744928E1,-1.010589600E-1,2.688598633E-2,5.020141602E-2
2.792763849E1,-1.947937012E-1,-1.318359375E-1,-3.288269043E-2
2.802782770E1,-1.021118164E-1,-1.861724854E-1,-6.378173828E-2
2.812804743E1,-1.607055664E-1,-6.259155273E-2,-2.139739990E-1
2.822826715E1,-4.398040771E-1,-3.949584961E-1,-2.608489990E-1
2.832845636E1,-1.119445801E0,-6.953582764E-1,-4.898834229E-1
2.842867609E1,-4.504547119E-1,-7.528839111E-1,-6.699066162E-1
2.852886530E1,-1.739425659E0,-1.988586426E0,-3.929443359E-1
2.862908502E1,-4.472656250E-1,-1.184310913E0,-1.628417969E-1
2.872930475E1,-1.902770996E-2,-3.907012939E-1,4.496765137E-1
2.882949396E1,-5.463256836E-1,-3.661956787E-1,6.829681396E-1
2.892971369E1,7.863159180E-1,6.415405273E-1,5.340576172E-2
2.902990290E1,1.315750122E0,2.761535645E-1,8.323669434E-2
2.913012262E1,1.167678833E0,-3.715209961E-1,-3.535308838E-1
2.923031183E1,9.311828613E-1,3.730926514E-1,1.076049805E0
2.933053156E1,1.089920044E0,-3.065338135E-1,4.251861572E-1
2.943075128E1,-8.506774902E-2,-2.713928223E-1,1.333007812E-1
2.953094049E1,-1.159667969E-1,2.262878418E-2,1.482086182E-1
2.963116022E1,-5.207672119E-1,3.198394775E-1,1.396942139E-1
2.973137994E1,1.066741943E-1,-1.307678223E-1,-1.308898926E-1
2.983159967E1,-1.702880859E-1,1.003875732E-1,-2.223205566E-2
2.993175836E1,1.791076660E-1,-3.170776367E-2,5.462646484E-3
3.003197809E1,-5.418395996E-2,-2.957153320E-2,1.292419434E-2
3.013216730E1,7.258605957E-2,-1.286468506E-1,-1.255645752E-1
3.023238703E1,1.556701660E-1,-1.083984375E-1,-2.330017090E-2
3.033263727E1,-1.660308838E-1,-7.005310059E-2,-5.099487305E-2
3.043285700E1,1.045379639E-1,9.826660156E-2,1.322326660E-1
3.053301569E1,-4.119873047E-3,-5.407714844E-2,-1.904296875E-2
3.063320490E1,2.784729004E-2,4.713439941E-2,-3.927612305E-2
3.073342462E1,-7.762145996E-2,-2.317810059E-2,4.487609863E-2
3.083364435E1,1.088104248E-1,-5.065917969E-3,5.340576172E-2
3.093383356E1,6.300354004E-2,1.461944580E-1,1.801757812E-1
3.103405329E1,2.377014160E-1,3.848114014E-1,3.900299072E-1
3.113424249E1,3.474273682E-1,-2.957153320E-2,1.599273682E-1
3.123449274E1,3.101348877E-1,8.471374512E-1,1.599273682E-1
3.133465143E1,-2.648925781E-2,4.860229492E-1,1.611328125E-2
3.143490167E1,-6.057739258E-2,1.163528442E0,7.554168701E-1
3.153506037E1,-3.023834229E-1,1.403213501E0,8.331756592E-1
3.163528009E1,1.380737305E0,-4.235839844E-2,3.484802246E-1
3.173549982E1,-8.377075195E-3,4.263610840E-1,1.134643555E0
3.183571955E1,-6.549835205E-1,-4.311828613E-1,2.500320435E0
3.193590875E1,1.897583008E-1,6.479339600E-1,1.652359009E0
3.203612848E1,-2.160949707E-1,-9.338378906E-3,6.382293701E-1
3.213631769E1,6.382446289E-1,-7.166748047E-1,2.398223877E-1
3.223650690E1,2.803192139E-1,-7.347717285E-1,-1.745605469E-1
3.233672663E1,2.464294434E-2,-5.153350830E-1,2.046661377E-1
3.243694635E1,1.663360596E-1,-1.038375854E0,7.577514648E-2
3.253713556E1,-2.754211426E-2,-5.281219482E-1,-2.842864990E-1
3.263735529E1,3.026885986E-1,-1.039123535E-2,-3.023986816E-1
3.273754450E1,-5.172729492E-3,-2.531433105E-2,-1.543273926E-1
3.283776422E1,1.525878906E-4,9.399414062E-2,-5.845642090E-2
3.293798395E1,-3.288269043E-2,8.122253418E-2,-9.445190430E-3
3.303817316E1,6.193542480E-2,9.841918945E-3,9.921264648E-2
3.313839288E1,-1.372680664E-1,-1.240783691E0,5.721893311E-1
3.323858209E1,-3.023834229E-1,-7.837829590E-1,-2.438049316E-1
3.333880182E1,-5.708312988E-1,9.664459229E-1,-5.814971924E-1
3.343900068E1,-1.215316772E0,1.589630127E0,-4.462127686E-1
3.353922040E1,-2.605484009E0,1.917724609E0,6.405639648E-2
3.363944013E1,-2.011077881E0,9.653778076E-1,-3.151855469E-1
3.373962934E1,-1.378311157E0,5.722961426E-1,-7.336425781E-2
3.383984907E1,-1.819320679E0,-8.871154785E-1,3.889617920E-1
3.394006879E1,-1.507202148E0,-5.483551025E-1,-5.793609619E-1
3.404025800E1,1.356231689E0,-3.461853027E0,-2.331542969E-1
3.414044721E1,6.819152832E-1,-6.346435547E-1,-7.762145996E-2
3.424066694E1,1.329605103E0,6.969451904E-1,8.363647461E-1
3.434088666E1,1.226501465E-1,-3.459625244E-1,9.780578613E-1
3.444107587E1,-4.003906250E-1,-1.275787354E-1,1.467010498E0
3.454129560E1,1.950653076E0,4.949478149E0,1.467010498E0
3.464148481E1,1.072875977E0,1.785644531E0,-1.477050781E-2
3.474170454E1,-1.170349121E-1,-3.054809570E-1,3.346252441E-1
3.484192426E1,3.742980957E-2,1.483306885E-1,4.145202637E-1
3.494214399E1,-4.779052734E-2,-2.085418701E-1,5.689849854E-1
3.504233320E1,8.033599854E-1,2.122497559E-1,2.313079834E-1
3.514252241E1,5.477905273E-3,-7.202148438E-3,-2.116394043E-2
3.524274213E1,7.598876953E-3,-4.013061523E-3,-3.051757812E-3
3.534296186E1,1.525878906E-4,-1.145935059E-2,-9.445190430E-3
3.544315107E1,2.677917480E-2,-9.988403320E-2,-9.445190430E-3
3.554334028E1,-2.116394043E-2,-1.787109375E-1,5.040130615E-1
3.564356000E1,-7.308959961E-3,6.652832031E-3,-2.009582520E-2
3.574377973E1,5.979919434E-2,3.592529297E-1,-1.473114014E0
3.584396894E1,-1.049804688E-2,1.387329102E-1,-1.244964600E-1
3.594421918E1,3.103637695E-2,-1.158599854E-1,9.494018555E-2
3.604440839E1,-2.435302734E-2,9.841918945E-3,-2.009582520E-2
3.614459760E1,-2.221679688E-2,-4.013061523E-3,-2.969360352E-2
3.624481733E1,1.525878906E-4,8.773803711E-3,-3.181457520E-2
3.634500654E1,-6.240844727E-3,1.197814941E-2,-2.648925781E-2
3.644522626E1,-1.156616211E-2,4.516601562E-3,-3.927612305E-2
3.654544599E1,-1.795959473E-2,4.516601562E-3,-4.885864258E-2
3.664563520E1,-1.049804688E-2,1.409912109E-2,-7.122802734E-2
3.674582441E1,-1.689147949E-2,1.409912109E-2,-8.934020996E-2
3.684604413E1,3.103637695E-2,2.380371094E-3,-7.017517090E-2
3.694626386E1,3.636169434E-2,-8.270263672E-3,-4.353332520E-2
3.704645307E1,6.546020508E-3,-1.876831055E-3,-3.608703613E-2
3.714667280E1,7.598876953E-3,-8.087158203E-4,-2.436828613E-2
3.724686201E1,5.477905273E-3,7.705688477E-3,-5.187988281E-3
3.734708173E1,-1.983642578E-3,-5.065917969E-3,-9.445190430E-3
3.744727094E1,-1.983642578E-3,5.584716797E-3,-6.256103516E-3
3.754749067E1,1.080322266E-2,4.516601562E-3,-8.377075195E-3
3.764771039E1,-4.119873047E-3,1.091003418E-2,-9.445190430E-3
3.774789960E1,4.409790039E-3,7.705688477E-3,-8.377075195E-3
3.784811933E1,-9.155273438E-4,8.773803711E-3,1.205444336E-3
3.794833906E1,1.826477051E-2,2.593994141E-4,1.373291016E-4
3.804852826E1,1.220703125E-3,-1.876831055E-3,1.205444336E-3
3.814874799E1,-4.119873047E-3,1.197814941E-2,4.394531250E-3
3.824893720E1,-1.049804688E-2,6.652832031E-3,1.373291016E-4
3.834915693E1,-1.983642578E-3,-4.013061523E-3,1.373291016E-4
3.844934614E1,-6.240844727E-3,-4.013061523E-3,-9.307861328E-4
3.854956586E1,-2.116394043E-2,3.448486328E-3,2.273559570E-3
3.864978559E1,-1.370239258E-2,2.380371094E-3,-9.307861328E-4
3.875000532E1,-7.308959961E-3,-6.134033203E-3,-6.256103516E-3
3.885019452E1,-9.155273438E-4,-1.876831055E-3,-7.324218750E-3
3.895044477E1,5.477905273E-3,-5.065917969E-3,-1.998901367E-3
3.905060346E1,1.525878906E-4,-4.013061523E-3,-8.377075195E-3
3.915079267E1,2.273559570E-3,-7.202148438E-3,-5.187988281E-3
3.925101240E1,6.546020508E-3,-1.876831055E-3,-3.051757812E-3
3.935120160E1,-1.983642578E-3,-1.876831055E-3,-4.119873047E-3
3.945142133E1,1.220703125E-3,3.448486328E-3,-4.119873047E-3
3.955164106E1,5.477905273E-3,-1.876831055E-3,-1.998901367E-3
3.965183027E1,-1.477050781E-2,5.584716797E-3,-6.256103516E-3
3.975204999E1,-6.240844727E-3,-8.087158203E-4,-7.324218750E-3
3.985223920E1,-4.119873047E-3,1.091003418E-2,-5.187988281E-3
3.995248945E1,9.735107422E-3,-2.944946289E-3,-8.377075195E-3
4.005264814E1,6.546020508E-3,-7.202148438E-3,-7.324218750E-3
4.015286787E1,-9.445190430E-3,-1.876831055E-3,-1.264953613E-2
4.025308759E1,-1.583862305E-2,1.409912109E-2,-1.904296875E-2
4.035330732E1,3.341674805E-3,1.197814941E-2,-1.797485352E-2
4.045349653E1,3.341674805E-3,1.327514648E-3,-2.116394043E-2
4.055368574E1,6.546020508E-3,-4.013061523E-3,-2.223205566E-2
4.065390546E1,4.409790039E-3,-8.087158203E-4,-2.116394043E-2
4.075412519E1,-7.308959961E-3,6.652832031E-3,-2.009582520E-2
4.085431440E1,-9.445190430E-3,8.773803711E-3,-2.009582520E-2
4.095453412E1,5.477905273E-3,7.705688477E-3,-1.904296875E-2
4.105472333E1,3.341674805E-3,2.380371094E-3,-1.904296875E-2
4.115494306E1,1.220703125E-3,6.652832031E-3,-1.690673828E-2
4.125513227E1,-5.172729492E-3,7.705688477E-3,-1.690673828E-2
4.135535200E1,-1.049804688E-2,2.380371094E-3,-2.330017090E-2
4.145557172E1,1.292419434E-2,-9.338378906E-3,-1.904296875E-2
4.155576093E1,4.409790039E-3,-8.087158203E-4,-1.904296875E-2
4.165598066E1,6.546020508E-3,5.584716797E-3,-1.690673828E-2
4.175620038E1,-8.377075195E-3,8.773803711E-3,-1.904296875E-2
4.185638959E1,1.220703125E-3,1.197814941E-2,-1.477050781E-2
4.195660932E1,4.409790039E-3,-2.944946289E-3,-1.264953613E-2
4.205679853E1,-1.983642578E-3,4.516601562E-3,-1.158142090E-2
4.215701826E1,-9.445190430E-3,4.516601562E-3,-1.158142090E-2
4.225720746E1,-3.051757812E-3,8.773803711E-3,-1.264953613E-2
4.235742719E1,1.612854004E-2,-5.065917969E-3,-1.477050781E-2
4.245764692E1,2.273559570E-3,9.841918945E-3,-1.051330566E-2
4.255783613E1,-4.119873047E-3,1.304626465E-2,-1.051330566E-2
4.265805585E1,-1.902770996E-2,7.705688477E-3,-1.690673828E-2
4.275824506E1,2.273559570E-3,7.705688477E-3,-1.264953613E-2
4.285846479E1,-4.119873047E-3,6.652832031E-3,-1.690673828E-2
4.295865400E1,-1.689147949E-2,9.841918945E-3,-1.370239258E-2
4.305887372E1,4.409790039E-3,2.380371094E-3,-1.051330566E-2
4.315909345E1,6.546020508E-3,1.327514648E-3,-1.264953613E-2
4.325928266E1,-1.795959473E-2,5.584716797E-3,-1.583862305E-2
4.335950239E1,5.477905273E-3,2.380371094E-3,-5.187988281E-3
4.345972094E1,6.546020508E-3,-8.270263672E-3,-8.377075195E-3
4.355994067E1,-1.902770996E-2,1.304626465E-2,3.341674805E-3
4.366016040E1,1.220703125E-3,-2.944946289E-3,-9.307861328E-4
4.376034960E1,4.409790039E-3,-5.065917969E-3,-1.998901367E-3
4.386056933E1,-2.009582520E-2,-4.013061523E-3,-1.998901367E-3
4.396078906E1,8.666992188E-3,-1.252746582E-2,-4.119873047E-3
4.406097827E1,-1.583862305E-2,1.327514648E-3,-3.051757812E-3
4.416116748E1,-7.308959961E-3,6.652832031E-3,-9.307861328E-4
4.426138720E1,-8.377075195E-3,5.584716797E-3,1.373291016E-4
4.436157641E1,-5.172729492E-3,5.584716797E-3,-5.187988281E-3
4.446179614E1,-9.155273438E-4,9.841918945E-3,-4.119873047E-3
4.456201586E1,-2.542114258E-2,1.516723633E-2,-9.445190430E-3
4.466220507E1,9.735107422E-3,-2.944946289E-3,-8.377075195E-3
4.476242480E1,-1.795959473E-2,6.652832031E-3,-1.264953613E-2
4.486261401E1,2.273559570E-3,-1.876831055E-3,-9.445190430E-3
4.496286425E1,-7.308959961E-3,3.448486328E-3,-1.158142090E-2
4.506305346E1,1.612854004E-2,-9.338378906E-3,-1.051330566E-2
4.516324267E1,-7.308959961E-3,4.516601562E-3,-9.445190430E-3
4.526346240E1,7.598876953E-3,-1.039123535E-2,-1.051330566E-2
4.536365161E1,-9.155273438E-4,1.516723633E-2,-8.377075195E-3
4.546387133E1,-1.156616211E-2,6.652832031E-3,-9.445190430E-3
4.556409106E1,5.477905273E-3,5.584716797E-3,-5.187988281E-3
4.566428027E1,-1.049804688E-2,-9.338378906E-3,-1.264953613E-2
4.576450000E1,1.719665527E-2,-7.202148438E-3,-1.370239258E-2
4.586468921E1,-1.795959473E-2,3.448486328E-3,-8.377075195E-3
4.596490893E1,1.080322266E-2,-7.202148438E-3,-1.477050781E-2
4.606512866E1,-1.370239258E-2,1.091003418E-2,-4.119873047E-3
4.616531787E1,-7.308959961E-3,1.327514648E-3,-1.264953613E-2
4.626553759E1,1.220703125E-3,7.705688477E-3,-7.324218750E-3
4.636575732E1,-1.477050781E-2,4.516601562E-3,-1.583862305E-2
4.646594653E1,1.187133789E-2,-9.338378906E-3,-1.051330566E-2
4.656613574E1,-3.051757812E-3,9.841918945E-3,-1.477050781E-2
4.666635546E1,2.273559570E-3,2.593994141E-4,-2.009582520E-2
4.676657519E1,1.187133789E-2,3.448486328E-3,-1.264953613E-2
4.686676440E1,-1.477050781E-2,5.584716797E-3,-2.009582520E-2
4.696698413E1,1.931762695E-2,-8.087158203E-4,-1.690673828E-2
4.706720385E1,-2.861022949E-2,1.091003418E-2,-2.223205566E-2
4.716739306E1,1.506042480E-2,-1.145935059E-2,-2.116394043E-2
4.726758227E1,-2.009582520E-2,3.448486328E-3,-2.009582520E-2
4.736780200E1,6.546020508E-3,-6.134033203E-3,-2.009582520E-2
4.746802172E1,-1.902770996E-2,7.705688477E-3,-1.797485352E-2
4.756821093E1,2.252197266E-2,-1.252746582E-2,-2.009582520E-2
4.766843066E1,-1.983642578E-3,5.584716797E-3,-1.583862305E-2
4.776861987E1,-3.051757812E-3,2.593994141E-4,-1.904296875E-2
4.786883960E1,-7.308959961E-3,2.581787109E-2,-8.377075195E-3
4.796905932E1,-4.119873047E-3,7.705688477E-3,-1.477050781E-2
4.806927905E1,-1.156616211E-2,1.197814941E-2,-1.264953613E-2
4.816946826E1,1.220703125E-3,-8.270263672E-3,-1.904296875E-2
4.826965747E1,-5.172729492E-3,5.584716797E-3,-1.370239258E-2
4.836987719E1,5.477905273E-3,-2.944946289E-3,-1.690673828E-2
4.847009692E1,-5.172729492E-3,7.705688477E-3,-1.583862305E-2
4.857028613E1,1.399230957E-2,-6.134033203E-3,-1.477050781E-2
4.867047534E1,-1.370239258E-2,5.584716797E-3,-1.477050781E-2
4.877069506E1,1.399230957E-2,-5.065917969E-3,-1.477050781E-2
4.887091479E1,-1.477050781E-2,7.705688477E-3,-1.051330566E-2
4.897110400E1,1.826477051E-2,-6.134033203E-3,-1.158142090E-2
4.907132373E1,-8.377075195E-3,4.516601562E-3,-1.370239258E-2
4.917154345E1,2.273559570E-3,6.652832031E-3,-9.445190430E-3
4.927173266E1,-6.240844727E-3,8.773803711E-3,-8.377075195E-3
4.937195239E1,-8.377075195E-3,-8.087158203E-4,-1.158142090E-2
4.947217212E1,1.187133789E-2,-8.270263672E-3,-1.370239258E-2
4.957236132E1,-1.689147949E-2,1.327514648E-3,-9.445190430E-3
4.967258105E1,8.666992188E-3,-1.678466797E-2,-1.904296875E-2
4.977277026E1,-1.902770996E-2,1.327514648E-3,-1.477050781E-2
4.987298999E1,1.612854004E-2,-6.134033203E-3,-1.158142090E-2
4.997320971E1,-6.240844727E-3,-2.944946289E-3,-1.904296875E-2
5.007339892E1,-8.377075195E-3,1.327514648E-3,-2.009582520E-2
5.017358813E1,1.525878906E-4,2.593994141E-4,-2.009582520E-2
5.027380786E1,-1.689147949E-2,1.304626465E-2,-1.583862305E-2
5.037399707E1,8.666992188E-3,4.516601562E-3,-1.158142090E-2
5.047421679E1,3.341674805E-3,1.730346680E-2,-1.690673828E-2
5.057443652E1,-2.754211426E-2,2.262878418E-2,-1.477050781E-2
5.067462573E1,9.735107422E-3,-5.065917969E-3,-2.009582520E-2
5.077484546E1,-6.240844727E-3,5.584716797E-3,-1.477050781E-2
5.087506518E1,-9.155273438E-4,8.773803711E-3,-1.690673828E-2
5.097525439E1,1.719665527E-2,-8.087158203E-4,-1.797485352E-2
5.107547412E1,-6.240844727E-3,8.773803711E-3,-1.797485352E-2
5.117566333E1,-8.377075195E-3,6.652832031E-3,-1.797485352E-2
5.127588305E1,2.145385742E-2,-1.252746582E-2,-1.797485352E-2
5.137610278E1,-6.240844727E-3,1.091003418E-2,-1.051330566E-2
5.147629199E1,8.666992188E-3,8.773803711E-3,-1.370239258E-2
5.157651172E1,4.409790039E-3,2.380371094E-3,-1.583862305E-2
5.167670092E1,3.341674805E-3,5.584716797E-3,-1.264953613E-2
5.177692065E1,-3.051757812E-3,9.841918945E-3,-1.690673828E-2
5.187710986E1,-4.119873047E-3,1.409912109E-2,-1.690673828E-2
5.197732959E1,5.477905273E-3,1.837158203E-2,-9.445190430E-3
5.207751880E1,5.477905273E-3,8.773803711E-3,-1.370239258E-2
5.217773852E1,-4.119873047E-3,3.448486328E-3,-1.051330566E-2
5.227792773E1,-1.983642578E-3,-8.087158203E-4,-8.377075195E-3
5.237814746E1,7.598876953E-3,2.380371094E-3,-1.158142090E-2
5.247836718E1,-1.477050781E-2,4.516601562E-3,-9.445190430E-3
5.257855639E1,-1.983642578E-3,1.091003418E-2,-8.377075195E-3
5.267877612E1,3.341674805E-3,-9.338378906E-3,-8.377075195E-3
5.277896533E1,5.477905273E-3,2.593994141E-4,-7.324218750E-3
5.287918506E1,-1.902770996E-2,7.705688477E-3,-1.370239258E-2
5.297940478E1,-4.119873047E-3,8.773803711E-3,-8.377075195E-3
5.307962451E1,-9.445190430E-3,7.705688477E-3,-6.256103516E-3
5.317981372E1,-3.051757812E-3,2.593994141E-4,-7.324218750E-3
5.328000293E1,-8.377075195E-3,2.380371094E-3,-9.445190430E-3
5.338022265E1,-4.119873047E-3,4.516601562E-3,-1.370239258E-2
5.348037986E1,1.525878906E-4,3.448486328E-3,-6.256103516E-3
5.358059959E1,3.341674805E-3,2.593994141E-4,-8.377075195E-3
5.368081931E1,5.477905273E-3,-1.876831055E-3,-7.324218750E-3
5.378100852E1,1.220703125E-3,2.593994141E-4,-1.690673828E-2
5.388122825E1,2.273559570E-3,6.652832031E-3,-5.187988281E-3
5.398144798E1,-1.689147949E-2,8.773803711E-3,-1.051330566E-2
5.408166770E1,1.612854004E-2,-5.065917969E-3,-4.119873047E-3
5.418185691E1,-5.172729492E-3,2.593994141E-4,-1.264953613E-2
5.428204612E1,1.220703125E-3,2.593994141E-4,-1.158142090E-2
5.438226585E1,5.477905273E-3,-8.087158203E-4,-1.998901367E-3
5.448245506E1,-7.308959961E-3,6.652832031E-3,-7.324218750E-3
5.458267478E1,-1.263427734E-2,2.380371094E-3,-1.264953613E-2
5.468289451E1,1.080322266E-2,-1.252746582E-2,-6.256103516E-3
5.478308372E1,2.273559570E-3,1.327514648E-3,-5.187988281E-3
5.488330344E1,3.341674805E-3,-4.013061523E-3,-5.187988281E-3
5.498349265E1,-1.983642578E-3,6.652832031E-3,-3.051757812E-3
5.508371238E1,2.273559570E-3,1.516723633E-2,-3.051757812E-3
5.518390159E1,4.409790039E-3,3.448486328E-3,1.373291016E-4
5.528412131E1,-9.445190430E-3,7.705688477E-3,-4.119873047E-3
5.538431052E1,5.477905273E-3,-1.876831055E-3,-4.119873047E-3
5.548453025E1,-8.377075195E-3,-2.944946289E-3,-7.324218750E-3
5.558474998E1,-6.240844727E-3,-5.065917969E-3,-5.187988281E-3
5.568493919E1,-4.119873047E-3,9.841918945E-3,2.273559570E-3
5.578515891E1,6.546020508E-3,2.593994141E-4,-1.998901367E-3
5.588537864E1,2.273559570E-3,-1.876831055E-3,-5.187988281E-3
5.598556785E1,1.220703125E-3,-1.876831055E-3,-4.119873047E-3
5.608581809E1,5.477905273E-3,3.448486328E-3,-1.998901367E-3
5.618597678E1,1.931762695E-2,-2.944946289E-3,-9.307861328E-4
5.628619651E1,-7.308959961E-3,6.652832031E-3,-4.119873047E-3
5.638638572E1,-1.983642578E-3,5.584716797E-3,-4.119873047E-3
5.648660544E1,-7.308959961E-3,2.593994141E-4,-8.377075195E-3
5.658679465E1,6.546020508E-3,1.327514648E-3,-7.324218750E-3
5.668701438E1,1.080322266E-2,-8.087158203E-4,-7.324218750E-3
5.678723411E1,-3.051757812E-3,4.516601562E-3,-7.324218750E-3
5.688742332E1,4.409790039E-3,5.584716797E-3,-5.187988281E-3
5.698767356E1,-9.155273438E-4,4.516601562E-3,-4.119873047E-3
5.708783225E1,-9.155273438E-4,6.652832031E-3,-6.256103516E-3
5.718805198E1,-1.370239258E-2,7.705688477E-3,-7.324218750E-3
5.728827171E1,-9.445190430E-3,-8.270263672E-3,-7.324218750E-3
5.738846091E1,1.525878906E-4,-5.065917969E-3,-9.445190430E-3
5.748868064E1,-9.445190430E-3,-8.087158203E-4,-1.051330566E-2
5.758886985E1,1.525878906E-4,5.584716797E-3,-6.256103516E-3
5.768908958E1,-4.119873047E-3,1.197814941E-2,-1.998901367E-3
5.778927878E1,4.409790039E-3,5.584716797E-3,-7.324218750E-3
5.788949851E1,-3.051757812E-3,2.593994141E-4,-9.445190430E-3
5.798968772E1,1.525878906E-4,4.516601562E-3,-4.119873047E-3
5.808993797E1,-5.172729492E-3,3.448486328E-3,-7.324218750E-3
5.819012717E1,2.273559570E-3,9.841918945E-3,-1.998901367E-3
5.829031638E1,-1.156616211E-2,-8.087158203E-4,-9.445190430E-3
5.839050559E1,-5.172729492E-3,7.705688477E-3,-7.324218750E-3
5.849072532E1,-9.155273438E-4,1.516723633E-2,-9.307861328E-4
5.859094505E1,-4.119873047E-3,1.091003418E-2,-3.051757812E-3
5.869113425E1,-4.119873047E-3,8.773803711E-3,-4.119873047E-3
5.879135398E1,3.341674805E-3,-8.087158203E-4,-8.377075195E-3
5.889157371E1,-9.155273438E-4,-4.013061523E-3,-6.256103516E-3
5.899176292E1,6.546020508E-3,2.380371094E-3,1.373291016E-4
5.909198264E1,-9.445190430E-3,7.705688477E-3,1.373291016E-4
5.919217185E1,-3.051757812E-3,2.380371094E-3,-5.187988281E-3
5.929239158E1,-9.155273438E-4,-2.944946289E-3,-6.256103516E-3
5.939258079E1,-6.240844727E-3,5.584716797E-3,-5.187988281E-3
5.949280051E1,-3.051757812E-3,-2.944946289E-3,-7.324218750E-3
5.959298972E1,1.220703125E-3,-1.876831055E-3,-8.377075195E-3
5.969320945E1,1.525878906E-4,4.516601562E-3,-4.119873047E-3
5.979339866E1,-3.051757812E-3,-2.944946289E-3,-7.324218750E-3
5.989361838E1,-9.445190430E-3,3.448486328E-3,-7.324218750E-3
5.999383811E1,1.220703125E-3,-2.944946289E-3,-5.187988281E-3
6.009405784E1,-1.263427734E-2,7.705688477E-3,-6.256103516E-3
6.019424705E1,6.546020508E-3,2.593994141E-4,-6.256103516E-3
6.029443626E1,8.666992188E-3,1.327514648E-3,-5.187988281E-3
6.039465598E1,-6.240844727E-3,4.516601562E-3,-6.256103516E-3
6.049484519E1,-6.240844727E-3,1.327514648E-3,-7.324218750E-3
6.059506492E1,-5.172729492E-3,-2.944946289E-3,-5.187988281E-3
6.069528464E1,2.273559570E-3,5.584716797E-3,-5.187988281E-3
6.079547385E1,1.525878906E-4,9.841918945E-3,-3.051757812E-3
6.089569358E1,3.341674805E-3,4.516601562E-3,-5.187988281E-3
6.099588279E1,-4.119873047E-3,5.584716797E-3,-4.119873047E-3
6.109610252E1,1.525878906E-4,3.448486328E-3,-5.187988281E-3
6.119632224E1,5.477905273E-3,1.327514648E-3,-4.119873047E-3
6.129651145E1,8.666992188E-3,6.652832031E-3,-9.307861328E-4
6.139673118E1,1.525878906E-4,5.584716797E-3,-3.051757812E-3
6.149692039E1,5.477905273E-3,5.584716797E-3,1.373291016E-4
6.159714011E1,-3.051757812E-3,1.327514648E-3,-3.051757812E-3
6.169735984E1,-6.240844727E-3,6.652832031E-3,-4.119873047E-3
6.179754905E1,-7.308959961E-3,6.652832031E-3,-8.377075195E-3
6.189776878E1,-1.049804688E-2,2.380371094E-3,-6.256103516E-3
6.199795798E1,-3.051757812E-3,3.448486328E-3,-5.187988281E-3
6.209817771E1,1.187133789E-2,-8.087158203E-4,-9.445190430E-3
6.219836692E1,6.546020508E-3,-6.134033203E-3,-1.051330566E-2
6.229858665E1,-5.172729492E-3,2.593994141E-4,-7.324218750E-3
6.239877586E1,-9.155273438E-4,-5.065917969E-3,-7.324218750E-3
6.249899558E1,-9.445190430E-3,-1.876831055E-3,-1.051330566E-2
6.259918479E1,-8.377075195E-3,2.593994141E-4,-8.377075195E-3
6.269940452E1,3.341674805E-3,2.593994141E-4,-6.256103516E-3
6.279962424E1,5.477905273E-3,2.593994141E-4,-4.119873047E-3
6.289981345E1,2.273559570E-3,4.516601562E-3,-1.998901367E-3
6.300003318E1,5.477905273E-3,3.448486328E-3,-1.998901367E-3
6.310025291E1,-1.370239258E-2,6.652832031E-3,-4.119873047E-3
6.320044212E1,-1.156616211E-2,1.327514648E-3,-9.445190430E-3
6.330066184E1,1.525878906E-4,2.380371094E-3,-6.256103516E-3
6.340085105E1,6.546020508E-3,-8.087158203E-4,-9.445190430E-3
6.350108771E1,4.409790039E-3,-1.359558105E-2,-9.445190430E-3
6.360127692E1,-1.049804688E-2,-5.065917969E-3,-8.377075195E-3
6.370149665E1,-4.119873047E-3,2.593994141E-4,-7.324218750E-3
6.380168586E1,1.525878906E-4,-4.013061523E-3,-9.445190430E-3
6.390190558E1,1.080322266E-2,8.773803711E-3,-9.307861328E-4
6.400212531E1,3.341674805E-3,1.197814941E-2,-4.119873047E-3
6.410234504E1,-1.983642578E-3,1.327514648E-3,-6.256103516E-3
6.420250373E1,-3.051757812E-3,-2.944946289E-3,-6.256103516E-3
6.430272346E1,-4.119873047E-3,-5.065917969E-3,-1.158142090E-2
6.440294318E1,4.409790039E-3,1.197814941E-2,-1.998901367E-3
6.450313239E1,-9.155273438E-4,4.516601562E-3,-1.998901367E-3
6.460338264E1,-4.119873047E-3,2.593994141E-4,-6.256103516E-3
6.470357184E1,1.525878906E-4,8.773803711E-3,-4.119873047E-3
6.480376105E1,-7.308959961E-3,-5.065917969E-3,-7.324218750E-3
6.490398078E1,7.598876953E-3,-9.338378906E-3,-8.377075195E-3
6.500420051E1,-9.445190430E-3,-4.013061523E-3,-8.377075195E-3
6.510438972E1,-4.119873047E-3,-1.145935059E-2,-9.445190430E-3
6.520457892E1,-4.119873047E-3,-2.743530273E-2,-9.445190430E-3
6.530479865E1,5.477905273E-3,-2.638244629E-2,-5.187988281E-3
6.540498786E1,-1.983642578E-3,-1.039123535E-2,-1.477050781E-2
6.550520759E1,-6.240844727E-3,-8.270263672E-3,-5.187988281E-3
6.560542731E1,-1.583862305E-2,4.516601562E-3,-4.119873047E-3
6.570561652E1,-6.240844727E-3,2.380371094E-3,-6.256103516E-3
6.580583625E1,1.080322266E-2,7.705688477E-3,-9.445190430E-3
6.590602546E1,-1.983642578E-3,3.448486328E-3,-6.256103516E-3
6.600624518E1,-1.689147949E-2,3.448486328E-3,-9.445190430E-3
6.610646491E1,-9.445190430E-3,1.516723633E-2,-6.256103516E-3
6.620665412E1,-3.051757812E-3,-8.087158203E-4,-7.324218750E-3
6.630684333E1,1.719665527E-2,-7.202148438E-3,-9.445190430E-3
6.640706306E1,1.292419434E-2,1.516723633E-2,-6.256103516E-3
6.650728278E1,3.341674805E-3,1.091003418E-2,-5.187988281E-3
6.660747199E1,-4.119873047E-3,1.327514648E-3,-9.445190430E-3
6.670769172E1,-9.445190430E-3,1.304626465E-2,-4.119873047E-3
6.680788093E1,-1.983642578E-3,4.516601562E-3,-4.119873047E-3
6.690810065E1,-9.155273438E-4,4.516601562E-3,-6.256103516E-3
6.700828986E1,1.525878906E-4,1.730346680E-2,-4.119873047E-3
6.710854011E1,-1.983642578E-3,2.581787109E-2,-5.187988281E-3
6.720872932E1,-3.051757812E-3,1.623535156E-2,-1.051330566E-2
6.730891852E1,-1.049804688E-2,2.049255371E-2,-3.051757812E-3
6.740913825E1,1.220703125E-3,-8.270263672E-3,-8.377075195E-3
6.750935798E1,3.341674805E-3,1.327514648E-3,-5.187988281E-3
6.760954719E1,3.341674805E-3,7.705688477E-3,-9.307861328E-4
6.770976691E1,-3.051757812E-3,-2.944946289E-3,-8.377075195E-3
6.780995612E1,-4.119873047E-3,-8.087158203E-4,-7.324218750E-3
6.791017585E1,3.341674805E-3,-1.359558105E-2,-7.324218750E-3
6.801036506E1,7.598876953E-3,-1.892089844E-2,-7.324218750E-3
6.811061530E1,-1.370239258E-2,-1.785278320E-2,-6.256103516E-3
6.821080451E1,5.477905273E-3,-1.678466797E-2,-9.445190430E-3
6.831099372E1,8.666992188E-3,-2.638244629E-2,-9.445190430E-3
6.841118293E1,-4.119873047E-3,6.652832031E-3,-1.051330566E-2
6.851140266E1,-1.049804688E-2,1.730346680E-2,-1.904296875E-2
6.861162238E1,3.341674805E-3,-8.270263672E-3,-5.187988281E-3
6.871181159E1,-1.156616211E-2,1.197814941E-2,-1.051330566E-2
6.881203132E1,6.546020508E-3,4.516601562E-3,-1.264953613E-2
6.891222053E1,1.080322266E-2,1.197814941E-2,-9.445190430E-3
6.901244025E1,6.546020508E-3,2.369689941E-2,-4.119873047E-3
6.911265998E1,-3.051757812E-3,3.434753418E-2,-8.377075195E-3
6.921284919E1,3.341674805E-3,2.581787109E-2,-3.051757812E-3
6.931306891E1,7.598876953E-3,1.304626465E-2,-6.256103516E-3
6.941325812E1,-6.240844727E-3,8.773803711E-3,-1.264953613E-2
6.951347785E1,-5.172729492E-3,-1.876831055E-3,-1.264953613E-2
6.961366706E1,-7.308959961E-3,6.652832031E-3,-1.158142090E-2
6.971388679E1,7.598876953E-3,-8.087158203E-4,-9.445190430E-3
6.981407600E1,1.220703125E-3,1.327514648E-3,-1.158142090E-2
6.991429572E1,-1.156616211E-2,1.327514648E-3,-1.370239258E-2
7.001451545E1,-2.116394043E-2,2.380371094E-3,-1.370239258E-2
7.011473517E1,-8.377075195E-3,7.705688477E-3,-8.377075195E-3
7.021492438E1,-3.051757812E-3,2.380371094E-3,-1.264953613E-2
7.031514411E1,-6.240844727E-3,-4.013061523E-3,-1.477050781E-2
7.041533332E1,-9.445190430E-3,2.593994141E-4,-4.119873047E-3
7.051552253E1,-7.308959961E-3,5.584716797E-3,-1.051330566E-2
7.061574225E1,-1.263427734E-2,1.327514648E-3,-1.051330566E-2
7.071596198E1,-4.119873047E-3,7.705688477E-3,-1.998901367E-3
7.081615119E1,-1.983642578E-3,2.380371094E-3,-4.119873047E-3
7.091637092E1,1.080322266E-2,-4.013061523E-3,1.205444336E-3
7.101659064E1,-5.172729492E-3,1.409912109E-2,-4.119873047E-3
7.111677985E1,1.292419434E-2,3.448486328E-3,-1.998901367E-3
7.121699958E1,1.292419434E-2,-4.013061523E-3,-1.998901367E-3
7.131718879E1,-9.155273438E-4,4.516601562E-3,-4.119873047E-3
7.141740851E1,2.359008789E-2,-9.338378906E-3,-9.307861328E-4
7.151759772E1,3.341674805E-3,-1.876831055E-3,-7.324218750E-3
7.161781745E1,1.525878906E-4,1.304626465E-2,-9.307861328E-4
7.171800666E1,-4.119873047E-3,-5.065917969E-3,-9.307861328E-4
7.181822638E1,-3.051757812E-3,1.327514648E-3,1.373291016E-4
7.191844611E1,-8.377075195E-3,-4.013061523E-3,-9.445190430E-3
7.201863532E1,-1.902770996E-2,2.369689941E-2,-1.583862305E-2
7.211885505E1,-1.263427734E-2,4.925537109E-2,-2.009582520E-2
7.221907477E1,-9.155273438E-4,4.499816895E-2,-1.797485352E-2
7.231926398E1,5.477905273E-3,1.730346680E-2,-2.116394043E-2
7.241945319E1,1.931762695E-2,1.942443848E-2,-1.370239258E-2
7.251967292E1,7.598876953E-3,-2.944946289E-3,-1.583862305E-2
7.261986213E1,2.038574219E-2,-3.382873535E-2,-2.009582520E-2
7.272008185E1,4.409790039E-3,-2.105712891E-2,-2.223205566E-2
7.282030158E1,1.292419434E-2,-1.785278320E-2,-1.477050781E-2
7.292049079E1,1.525878906E-4,1.327514648E-3,-1.904296875E-2
7.302071052E1,1.080322266E-2,-1.571655273E-2,-1.477050781E-2
7.312093024E1,1.220703125E-3,-1.359558105E-2,-1.583862305E-2
7.322111945E1,1.525878906E-4,-1.466369629E-2,-1.477050781E-2
7.332133918E1,-1.156616211E-2,-8.270263672E-3,-1.583862305E-2
7.342150185E1,-1.263427734E-2,8.773803711E-3,-1.370239258E-2
7.352169106E1,4.409790039E-3,-2.944946289E-3,-1.051330566E-2
7.362191078E1,-8.377075195E-3,-4.013061523E-3,-9.445190430E-3
7.372213051E1,-1.370239258E-2,1.623535156E-2,-1.264953613E-2
7.382231972E1,-9.155273438E-4,1.409912109E-2,-1.264953613E-2
7.392253945E1,-1.370239258E-2,2.156066895E-2,-1.477050781E-2
7.402275917E1,1.399230957E-2,-8.087158203E-4,-1.264953613E-2
7.412294838E1,-1.902770996E-2,8.773803711E-3,-1.264953613E-2
7.422319863E1,5.477905273E-3,-1.785278320E-2,-1.264953613E-2
7.432335732E1,-7.308959961E-3,9.841918945E-3,-1.051330566E-2
7.442357704E1,-4.119873047E-3,-1.039123535E-2,-1.583862305E-2
7.452376625E1,1.399230957E-2,-2.210998535E-2,-1.690673828E-2
7.462398598E1,1.220703125E-3,1.304626465E-2,-1.370239258E-2
7.472417519E1,2.677917480E-2,-2.424621582E-2,-1.690673828E-2
7.482439492E1,5.477905273E-3,7.705688477E-3,-9.445190430E-3
7.492458412E1,7.598876953E-3,-1.571655273E-2,-1.264953613E-2
7.502480385E1,-3.051757812E-3,2.593994141E-4,-5.187988281E-3
7.512502358E1,2.273559570E-3,-4.013061523E-3,-1.051330566E-2
7.522521279E1,-4.119873047E-3,-8.087158203E-4,-9.445190430E-3
7.532543251E1,2.252197266E-2,-9.338378906E-3,-9.445190430E-3
7.542562172E1,8.666992188E-3,-7.202148438E-3,-9.307861328E-4
7.552584145E1,-1.689147949E-2,-1.359558105E-2,-7.324218750E-3
7.562603066E1,1.187133789E-2,-9.338378906E-3,1.373291016E-4
7.572625038E1,1.525878906E-4,-2.317810059E-2,-9.445190430E-3
7.582647011E1,-3.181457520E-2,-1.145935059E-2,9.719848633E-3
7.592665932E1,-1.902770996E-2,2.902221680E-2,6.530761719E-3
7.602687904E1,-2.542114258E-2,7.162475586E-2,9.719848633E-3
7.612706825E1,-2.754211426E-2,4.713439941E-2,1.292419434E-2
7.622728798E1,-1.477050781E-2,2.474975586E-2,2.038574219E-2
7.632750771E1,7.598876953E-3,-1.678466797E-2,1.399230957E-2
7.642769692E1,1.719665527E-2,-2.424621582E-2,3.103637695E-2
7.652791664E1,-7.308959961E-3,-1.876831055E-3,4.168701172E-2
7.662810585E1,-5.172729492E-3,-9.338378906E-3,3.315734863E-2
7.672832558E1,-3.051757812E-3,1.197814941E-2,3.848266602E-2
7.682851479E1,-6.240844727E-3,1.304626465E-2,4.487609863E-2
7.692873451E1,-3.051757812E-3,3.448486328E-3,3.955078125E-2
7.702892372E1,-1.049804688E-2,-4.013061523E-3,4.380798340E-2
7.712914345E1,1.220703125E-3,-8.270263672E-3,4.380798340E-2
7.722936318E1,-9.155273438E-4,6.652832031E-3,3.742980957E-2
7.732955238E1,1.220703125E-3,6.652832031E-3,3.315734863E-2
7.742977211E1,3.341674805E-3,2.593994141E-4,2.571105957E-2
7.752996132E1,-2.328491211E-2,6.652832031E-3,1.931762695E-2
7.763018105E1,1.506042480E-2,-1.876831055E-3,1.931762695E-2
7.773037026E1,-1.795959473E-2,9.841918945E-3,1.078796387E-2
7.783058998E1,8.666992188E-3,-6.134033203E-3,1.399230957E-2
7.793077919E1,-2.861022949E-2,9.841918945E-3,5.462646484E-3
7.803099892E1,9.735107422E-3,6.652832031E-3,-3.051757812E-3
7.813121864E1,4.409790039E-3,1.516723633E-2,1.373291016E-4
7.823143837E1,-6.240844727E-3,7.705688477E-3,-6.256103516E-3
7.833162758E1,-1.795959473E-2,-2.944946289E-3,-1.264953613E-2
7.843184731E1,-6.240844727E-3,-1.466369629E-2,-1.583862305E-2
7.853203652E1,3.341674805E-3,-1.145935059E-2,-2.116394043E-2
7.863225624E1,-4.119873047E-3,5.584716797E-3,-2.009582520E-2
7.873244545E1,2.273559570E-3,2.380371094E-3,-2.223205566E-2
7.883266518E1,-1.370239258E-2,-2.944946289E-3,-2.436828613E-2
7.893285439E1,-2.542114258E-2,5.584716797E-3,-3.074645996E-2
7.903304360E1,-2.648925781E-2,9.841918945E-3,-3.608703613E-2
7.913326332E1,5.477905273E-3,1.197814941E-2,-2.116394043E-2
7.923351357E1,5.477905273E-3,3.009033203E-2,-2.648925781E-2
7.933367226E1,-1.583862305E-2,2.049255371E-2,-3.927612305E-2
7.943389198E1,-1.049804688E-2,-5.065917969E-3,-3.927612305E-2
7.953411171E1,-9.445190430E-3,-9.338378906E-3,-5.099487305E-2
7.963430092E1,-4.119873047E-3,-7.202148438E-3,-6.590270996E-2
7.973449013E1,8.666992188E-3,3.448486328E-3,-6.164550781E-2
7.983470986E1,-1.983642578E-3,7.705688477E-3,-6.164550781E-2
7.993492958E1,1.612854004E-2,5.584716797E-3,-4.566955566E-2
8.003511879E1,3.341674805E-3,1.197814941E-2,-3.927612305E-2
8.013533852E1,1.220703125E-3,1.623535156E-2,-4.034423828E-2
8.023552773E1,3.341674805E-3,2.380371094E-3,-3.608703613E-2
8.033574745E1,-8.377075195E-3,2.593994141E-4,-4.246520996E-2
8.043596718E1,-1.583862305E-2,3.448486328E-3,-4.779052734E-2
8.053615639E1,1.220703125E-3,1.327514648E-3,-4.034423828E-2
8.063637612E1,4.409790039E-3,2.380371094E-3,-4.673767090E-2
8.073656532E1,4.409790039E-3,-7.202148438E-3,-4.992675781E-2
8.083678505E1,-1.049804688E-2,1.730346680E-2,-4.673767090E-2
8.093697426E1,4.409790039E-3,1.304626465E-2,-5.525207520E-2
8.103719399E1,-1.049804688E-2,2.902221680E-2,-5.738830566E-2
8.113738320E1,-1.983642578E-3,3.434753418E-2,-5.206298828E-2
8.123763344E1,-4.119873047E-3,3.448486328E-3,-4.885864258E-2
8.133782265E1,-3.051757812E-3,-1.785278320E-2,-5.099487305E-2
8.143804238E1,3.341674805E-3,-1.785278320E-2,-4.460144043E-2
8.153823158E1,-5.172729492E-3,3.448486328E-3,-3.713989258E-2
8.163842079E1,2.273559570E-3,1.409912109E-2,-3.395080566E-2
8.173864052E1,-3.051757812E-3,2.049255371E-2,-3.181457520E-2
8.183886025E1,-1.689147949E-2,2.688598633E-2,-2.969360352E-2
8.193904946E1,-2.221679688E-2,8.773803711E-3,-2.436828613E-2
8.203926918E1,-2.435302734E-2,-3.810119629E-2,-2.542114258E-2
8.213945839E1,2.038574219E-2,-2.944946289E-3,-1.264953613E-2
8.223970864E1,6.086730957E-2,4.074096680E-2,-1.904296875E-2
8.233989784E1,-7.548522949E-2,7.588195801E-2,-5.187988281E-3
8.244008705E1,4.409790039E-3,6.311035156E-2,-1.477050781E-2
8.254027626E1,-3.820800781E-2,2.369689941E-2,-1.797485352E-2
8.264049599E1,1.080322266E-2,-4.875183105E-2,-1.477050781E-2
8.274071572E1,2.359008789E-2,-4.875183105E-2,-1.690673828E-2
8.284090492E1,3.103637695E-2,-3.703308105E-2,-1.477050781E-2
8.294112465E1,-2.754211426E-2,7.705688477E-3,-2.009582520E-2
8.304131386E1,1.525878906E-4,-1.892089844E-2,-2.223205566E-2
8.314153359E1,-3.288269043E-2,-1.785278320E-2,-2.330017090E-2
8.324175331E1,-2.116394043E-2,-3.703308105E-2,-2.862548828E-2
8.334194252E1,1.506042480E-2,-1.359558105E-2,-1.797485352E-2
8.344217413E1,1.187133789E-2,2.380371094E-3,-2.009582520E-2
8.354236334E1,-1.902770996E-2,2.593994141E-4,-3.074645996E-2
8.364258306E1,5.477905273E-3,3.221130371E-2,-3.288269043E-2
8.374277227E1,6.546020508E-3,2.795410156E-2,-3.608703613E-2
8.384299200E1,-6.240844727E-3,1.623535156E-2,-3.501892090E-2
8.394318121E1,-1.983642578E-3,2.369689941E-2,-3.181457520E-2
8.404340094E1,-6.240844727E-3,2.902221680E-2,-2.223205566E-2
8.414362066E1,1.187133789E-2,8.773803711E-3,-2.862548828E-2
8.424384039E1,-9.155273438E-4,-1.571655273E-2,-3.181457520E-2
8.434402960E1,-3.051757812E-3,6.652832031E-3,-2.330017090E-2
8.444421881E1,8.666992188E-3,9.841918945E-3,-2.542114258E-2
8.454443853E1,-9.155273438E-4,2.593994141E-4,-2.330017090E-2
8.464462774E1,-7.308959961E-3,-2.850341797E-2,-3.074645996E-2
8.474484747E1,1.187133789E-2,3.448486328E-3,-1.583862305E-2
8.484503668E1,-3.051757812E-3,2.156066895E-2,-1.797485352E-2
8.494525640E1,4.409790039E-3,2.380371094E-3,-2.116394043E-2
8.504544561E1,-3.051757812E-3,-1.571655273E-2,-2.116394043E-2
8.514566534E1,-1.983642578E-3,-9.338378906E-3,-2.009582520E-2
8.524588507E1,-1.983642578E-3,9.841918945E-3,-2.116394043E-2
8.534607428E1,-2.435302734E-2,1.327514648E-3,-2.009582520E-2
8.544629400E1,4.409790039E-3,-4.013061523E-3,-1.370239258E-2
8.554651373E1,1.080322266E-2,-1.145935059E-2,-1.370239258E-2
8.564670294E1,1.931762695E-2,-1.678466797E-2,-1.264953613E-2
8.574692266E1,1.506042480E-2,-1.359558105E-2,-1.797485352E-2
8.584711187E1,1.080322266E-2,3.009033203E-2,-9.445190430E-3
8.594733160E1,9.735107422E-3,2.902221680E-2,-4.119873047E-3
8.604752081E1,-5.172729492E-3,3.434753418E-2,-5.187988281E-3
8.614774054E1,-2.116394043E-2,3.114318848E-2,-9.445190430E-3
8.624796026E1,-1.477050781E-2,2.369689941E-2,-7.324218750E-3
8.634814947E1,-1.370239258E-2,-1.678466797E-2,-1.797485352E-2
8.644836920E1,1.220703125E-3,-1.876831055E-3,-1.370239258E-2
8.654855841E1,-9.155273438E-4,2.369689941E-2,-1.690673828E-2
8.664877813E1,-7.308959961E-3,3.434753418E-2,-1.797485352E-2
8.674896734E1,-5.172729492E-3,2.262878418E-2,-2.223205566E-2
8.684918707E1,-1.902770996E-2,2.369689941E-2,-2.009582520E-2
8.694937628E1,-2.116394043E-2,1.304626465E-2,-1.158142090E-2
8.704959600E1,-6.240844727E-3,-2.210998535E-2,-2.009582520E-2
8.714981573E1,1.080322266E-2,-1.998901367E-2,-1.690673828E-2
8.725003546E1,-5.172729492E-3,9.841918945E-3,-1.583862305E-2
8.735019415E1,-1.477050781E-2,1.942443848E-2,-1.158142090E-2
8.745041388E1,-5.172729492E-3,2.380371094E-3,-8.377075195E-3
8.755063360E1,-1.583862305E-2,-4.013061523E-3,-1.264953613E-2
8.765082281E1,-3.051757812E-3,-1.145935059E-2,-1.370239258E-2
8.775104254E1,6.546020508E-3,-5.065917969E-3,-1.051330566E-2
8.785123175E1,3.341674805E-3,1.327514648E-3,-7.324218750E-3
8.795145147E1,5.477905273E-3,-2.944946289E-3,-1.051330566E-2
8.805164068E1,1.187133789E-2,6.652832031E-3,-1.051330566E-2
8.815186041E1,-1.049804688E-2,1.327514648E-3,-1.158142090E-2
8.825208013E1,-8.377075195E-3,-8.087158203E-4,-9.445190430E-3
8.835226934E1,-3.500366211E-2,5.584716797E-3,-1.370239258E-2
8.845248907E1,-5.172729492E-3,-2.944946289E-3,-1.264953613E-2
8.855267828E1,-7.308959961E-3,1.304626465E-2,-9.445190430E-3
8.865289801E1,-1.049804688E-2,-6.134033203E-3,-1.264953613E-2
8.875308721E1,-8.377075195E-3,-1.571655273E-2,-1.904296875E-2
8.885330694E1,-5.172729492E-3,-2.424621582E-2,-1.583862305E-2
8.895352667E1,-9.445190430E-3,-1.252746582E-2,-1.158142090E-2
8.905371588E1,-4.119873047E-3,4.516601562E-3,-8.377075195E-3
8.915393560E1,-9.155273438E-4,6.652832031E-3,-1.158142090E-2
8.925415533E1,9.735107422E-3,-1.876831055E-3,-1.583862305E-2
8.935434454E1,3.341674805E-3,9.841918945E-3,-9.445190430E-3
8.945453375E1,-9.155273438E-4,2.581787109E-2,-8.377075195E-3
8.955475347E1,-1.370239258E-2,2.049255371E-2,-1.370239258E-2
8.965497320E1,-2.328491211E-2,6.652832031E-3,-1.690673828E-2
8.975516241E1,-2.967834473E-2,2.380371094E-3,-1.797485352E-2
8.985538214E1,-1.049804688E-2,-4.013061523E-3,-2.009582520E-2
8.995557135E1,-6.240844727E-3,-4.013061523E-3,-1.477050781E-2
9.005579107E1,-6.240844727E-3,-7.202148438E-3,-2.009582520E-2
9.015601080E1,5.477905273E-3,-5.065917969E-3,-1.158142090E-2
9.025620001E1,2.273559570E-3,-4.013061523E-3,-1.477050781E-2
9.035641973E1,1.220703125E-3,9.841918945E-3,-9.445190430E-3
9.045660894E1,-8.377075195E-3,1.623535156E-2,-6.256103516E-3
9.055682867E1,-1.477050781E-2,1.409912109E-2,-1.264953613E-2
9.065701788E1,2.252197266E-2,1.409912109E-2,-2.009582520E-2
9.075723760E1,1.080322266E-2,3.327941895E-2,-9.445190430E-3
9.085742681E1,-2.009582520E-2,3.646850586E-2,-1.158142090E-2
9.095764654E1,-1.795959473E-2,7.705688477E-3,-1.370239258E-2
9.105783575E1,1.506042480E-2,-1.145935059E-2,-1.264953613E-2
9.115805548E1,2.273559570E-3,2.593994141E-4,-5.187988281E-3
9.125827520E1,-2.328491211E-2,-2.850341797E-2,-1.158142090E-2
9.135846441E1,-1.477050781E-2,-3.596496582E-2,-1.264953613E-2
9.145868414E1,3.341674805E-3,-7.202148438E-3,-4.119873047E-3
9.155887335E1,-7.308959961E-3,3.646850586E-2,1.205444336E-3
9.165909307E1,-3.500366211E-2,2.581787109E-2,-4.119873047E-3
9.175931280E1,-8.377075195E-3,-1.998901367E-2,-5.187988281E-3
9.185950201E1,4.409790039E-3,-1.252746582E-2,2.273559570E-3
9.195972174E1,-4.119873047E-3,1.730346680E-2,3.341674805E-3
9.205991095E1,9.735107422E-3,1.837158203E-2,2.273559570E-3
9.216013067E1,-2.221679688E-2,2.369689941E-2,-3.051757812E-3
9.226035040E1,1.525878906E-4,1.942443848E-2,5.462646484E-3
9.236053961E1,-2.328491211E-2,1.304626465E-2,3.341674805E-3
9.246072882E1,1.187133789E-2,-9.338378906E-3,6.530761719E-3
9.256094854E1,-1.583862305E-2,-8.270263672E-3,-1.998901367E-3
9.266116827E1,9.735107422E-3,-3.170776367E-2,-7.324218750E-3
9.276135748E1,1.399230957E-2,-2.944946289E-3,-3.051757812E-3
9.286154669E1,-6.240844727E-3,2.795410156E-2,2.273559570E-3
9.296176641E1,-1.583862305E-2,1.516723633E-2,3.341674805E-3
9.306198614E1,-1.689147949E-2,-2.317810059E-2,-3.051757812E-3
9.316223638E1,-1.983642578E-3,-2.531433105E-2,1.205444336E-3
9.326242559E1,-1.477050781E-2,-1.998901367E-2,-4.119873047E-3
9.336261480E1,-6.240844727E-3,-1.145935059E-2,-1.998901367E-3
9.346279358E1,-1.583862305E-2,-8.087158203E-4,-3.051757812E-3
9.356298279E1,1.080322266E-2,-7.202148438E-3,2.273559570E-3
9.366320252E1,-7.308959961E-3,1.327514648E-3,3.341674805E-3
9.376342224E1,1.080322266E-2,2.593994141E-4,-3.051757812E-3
9.386361145E1,-2.009582520E-2,5.584716797E-3,-9.307861328E-4
9.396383118E1,4.409790039E-3,3.448486328E-3,1.205444336E-3
9.406405091E1,-2.648925781E-2,2.049255371E-2,7.598876953E-3
9.416424012E1,-2.648925781E-2,-2.944946289E-3,-3.051757812E-3
9.426449036E1,2.273559570E-3,-4.013061523E-3,-9.307861328E-4
9.436464905E1,-2.221679688E-2,5.584716797E-3,-5.187988281E-3
9.446486878E1,-1.902770996E-2,1.327514648E-3,1.205444336E-3
9.456508850E1,3.341674805E-3,-1.252746582E-2,-3.051757812E-3
9.466527771E1,9.735107422E-3,-1.252746582E-2,3.341674805E-3
9.476549744E1,-1.583862305E-2,-1.876831055E-3,1.373291016E-4
9.486568665E1,-8.377075195E-3,-2.944946289E-3,-4.119873047E-3
9.496590638E1,1.826477051E-2,1.730346680E-2,1.205444336E-3
9.506609558E1,1.506042480E-2,2.369689941E-2,4.394531250E-3
9.516631531E1,-1.983642578E-3,3.114318848E-2,8.666992188E-3
9.526653504E1,-4.119873047E-3,1.409912109E-2,9.719848633E-3
9.536672425E1,-2.435302734E-2,-1.359558105E-2,7.598876953E-3
9.546691346E1,-1.263427734E-2,-9.338378906E-3,6.530761719E-3
9.556713318E1,-1.156616211E-2,-1.571655273E-2,2.273559570E-3
9.566735291E1,-4.119873047E-3,-1.359558105E-2,1.205444336E-3
9.576754212E1,-8.377075195E-3,4.516601562E-3,6.530761719E-3
9.586779236E1,-2.009582520E-2,4.713439941E-2,8.666992188E-3
9.596798157E1,-1.689147949E-2,1.623535156E-2,7.598876953E-3
9.606817078E1,-2.116394043E-2,-1.145935059E-2,5.462646484E-3
9.616835999E1,-1.795959473E-2,-1.571655273E-2,3.341674805E-3
9.626857972E1,-1.689147949E-2,-1.252746582E-2,4.394531250E-3
9.636879944E1,-1.156616211E-2,-7.202148438E-3,8.666992188E-3
9.646898865E1,-1.049804688E-2,5.584716797E-3,8.666992188E-3
9.656920838E1,-2.542114258E-2,7.705688477E-3,6.530761719E-3
9.666939759E1,-2.328491211E-2,-8.270263672E-3,7.598876953E-3
9.676961731E1,-2.009582520E-2,-6.134033203E-3,3.341674805E-3
9.686983704E1,-1.477050781E-2,-6.134033203E-3,4.394531250E-3
9.697002625E1,-1.689147949E-2,2.380371094E-3,3.341674805E-3
9.707021546E1,-8.377075195E-3,-1.359558105E-2,2.273559570E-3
9.717043518E1,-6.240844727E-3,-7.202148438E-3,1.373291016E-4
9.727065491E1,-8.377075195E-3,7.705688477E-3,2.273559570E-3
9.737084412E1,-7.308959961E-3,-5.065917969E-3,6.530761719E-3
9.747106385E1,-1.477050781E-2,-2.210998535E-2,2.273559570E-3
9.757128357E1,6.546020508E-3,-1.466369629E-2,1.205444336E-3
9.767147278E1,1.292419434E-2,2.593994141E-4,8.666992188E-3
9.777169251E1,1.292419434E-2,1.516723633E-2,6.530761719E-3
9.787188172E1,1.187133789E-2,5.584716797E-3,8.666992188E-3
9.797210144E1,-7.308959961E-3,1.091003418E-2,4.394531250E-3
9.807229065E1,-1.795959473E-2,8.773803711E-3,8.666992188E-3
9.817251038E1,-1.477050781E-2,2.262878418E-2,3.341674805E-3
9.827273011E1,-3.051757812E-3,-2.944946289E-3,6.530761719E-3
9.837291932E1,5.477905273E-3,-1.876831055E-3,7.598876953E-3
9.847310852E1,-7.308959961E-3,1.304626465E-2,6.530761719E-3
9.857332825E1,-1.156616211E-2,1.730346680E-2,7.598876953E-3
9.867354798E1,4.409790039E-3,1.516723633E-2,1.292419434E-2
9.877373719E1,-1.689147949E-2,2.795410156E-2,1.185607910E-2
9.887395691E1,-2.435302734E-2,-4.013061523E-3,2.273559570E-3
9.897414612E1,4.409790039E-3,-1.998901367E-2,6.530761719E-3
9.907436585E1,-9.155273438E-4,1.197814941E-2,1.078796387E-2
9.917458558E1,-7.308959961E-3,5.584716797E-3,1.205444336E-3
9.927477478E1,5.477905273E-3,1.327514648E-3,1.292419434E-2
9.937499451E1,-2.542114258E-2,1.623535156E-2,7.598876953E-3
9.947518372E1,-4.119873047E-3,2.380371094E-3,1.185607910E-2
9.957540345E1,-2.967834473E-2,2.795410156E-2,7.598876953E-3
9.967562317E1,-8.377075195E-3,3.448486328E-3,1.292419434E-2
9.977581238E1,-1.795959473E-2,-2.424621582E-2,3.341674805E-3
9.987603211E1,-9.155273438E-4,-2.210998535E-2,9.719848633E-3
9.997622132E1,-1.983642578E-3,-4.013061523E-3,8.666992188E-3
1.000764410E2,-7.308959961E-3,9.841918945E-3,1.185607910E-2
1.001766303E2,1.220703125E-3,-2.944946289E-3,9.719848633E-3
1.002768500E2,-1.156616211E-2,-5.065917969E-3,6.530761719E-3
1.003770697E2,-1.156616211E-2,9.841918945E-3,9.719848633E-3
1.004772589E2,-3.051757812E-3,4.516601562E-3,1.292419434E-2
1.005774786E2,1.187133789E-2,-2.210998535E-2,1.611328125E-2
1.006776679E2,1.399230957E-2,-2.105712891E-2,1.611328125E-2
1.007778876E2,-3.051757812E-3,2.380371094E-3,1.718139648E-2
1.008780768E2,-1.156616211E-2,1.730346680E-2,2.357482910E-2
1.009782965E2,-1.370239258E-2,1.409912109E-2,2.038574219E-2
1.010784857E2,-1.795959473E-2,2.593994141E-4,1.931762695E-2
1.011787054E2,-1.049804688E-2,-1.039123535E-2,2.143859863E-2
1.012789252E2,4.409790039E-3,-9.338378906E-3,1.824951172E-2
1.013791449E2,-4.119873047E-3,5.584716797E-3,2.250671387E-2
1.014793341E2,-1.983642578E-3,9.841918945E-3,1.931762695E-2
1.015795538E2,-4.119873047E-3,9.841918945E-3,1.931762695E-2
1.016797430E2,-1.983642578E-3,-8.087158203E-4,2.250671387E-2
1.017799628E2,1.506042480E-2,-6.134033203E-3,1.611328125E-2
1.018801520E2,-7.308959961E-3,-1.876831055E-3,1.824951172E-2
1.019803717E2,3.341674805E-3,-1.466369629E-2,1.718139648E-2
1.020805609E2,5.477905273E-3,-2.944946289E-3,2.357482910E-2
1.021807806E2,5.477905273E-3,9.841918945E-3,2.038574219E-2
1.022809699E2,-7.308959961E-3,1.409912109E-2,1.611328125E-2
1.023812201E2,-9.155273438E-4,-2.944946289E-3,1.506042480E-2
1.024813788E2,-5.172729492E-3,3.448486328E-3,1.718139648E-2
1.025815985E2,1.525878906E-4,1.327514648E-3,1.506042480E-2
1.026818182E2,-9.155273438E-4,-2.944946289E-3,1.931762695E-2
1.027820380E2,4.409790039E-3,-1.678466797E-2,1.292419434E-2
1.028822272E2,-6.240844727E-3,-1.571655273E-2,1.292419434E-2
1.029824164E2,5.477905273E-3,-8.087158203E-4,1.824951172E-2
1.030826666E2,3.341674805E-3,-2.944946289E-3,1.611328125E-2
1.031828558E2,-1.049804688E-2,-9.338378906E-3,8.666992188E-3
1.032830450E2,7.598876953E-3,-4.013061523E-3,1.399230957E-2
1.033832648E2,8.666992188E-3,6.652832031E-3,1.611328125E-2
1.034835402E2,-7.308959961E-3,1.409912109E-2,1.292419434E-2
1.035837600E2,-9.155273438E-4,1.730346680E-2,1.824951172E-2
1.036839797E2,1.220703125E-3,2.380371094E-3,1.824951172E-2
1.037841689E2,1.525878906E-4,-7.202148438E-3,8.666992188E-3
1.038843886E2,1.220703125E-3,-5.065917969E-3,1.824951172E-2
1.039845778E2,4.409790039E-3,2.581787109E-2,1.824951172E-2
1.040847976E2,-1.477050781E-2,3.114318848E-2,2.250671387E-2
1.041850173E2,-4.119873047E-3,1.409912109E-2,1.399230957E-2
1.042852065E2,-1.370239258E-2,2.593994141E-4,1.399230957E-2
1.043854567E2,-5.172729492E-3,-1.252746582E-2,1.185607910E-2
1.044856154E2,3.341674805E-3,-1.876831055E-3,1.078796387E-2
1.045858352E2,-1.689147949E-2,7.705688477E-3,9.719848633E-3
1.046860244E2,1.220703125E-3,-8.087158203E-4,1.399230957E-2
1.047862441E2,-5.172729492E-3,-6.134033203E-3,1.078796387E-2
1.048864638E2,-7.308959961E-3,-1.039123535E-2,8.666992188E-3
1.049866530E2,-3.051757812E-3,-4.013061523E-3,9.719848633E-3
1.050868728E2,-1.156616211E-2,-1.892089844E-2,3.341674805E-3
1.051870925E2,-1.689147949E-2,-8.087158203E-4,5.462646484E-3
1.052872817E2,-6.240844727E-3,-7.202148438E-3,6.530761719E-3
1.053875014E2,5.477905273E-3,-5.065917969E-3,1.078796387E-2
1.054876906E2,8.666992188E-3,1.327514648E-3,2.273559570E-3
1.055879104E2,1.187133789E-2,2.262878418E-2,6.530761719E-3
1.056880996E2,-8.377075195E-3,3.860473633E-2,4.394531250E-3
1.057883193E2,-9.445190430E-3,2.581787109E-2,6.530761719E-3
1.058885085E2,-1.370239258E-2,5.584716797E-3,9.719848633E-3
1.059887282E2,-2.435302734E-2,2.380371094E-3,1.078796387E-2
1.060889174E2,-6.240844727E-3,7.705688477E-3,1.185607910E-2
1.061891372E2,-9.155273438E-4,-1.039123535E-2,5.462646484E-3
1.062893569E2,1.220703125E-3,9.841918945E-3,8.666992188E-3
1.063895766E2,-1.263427734E-2,6.652832031E-3,1.078796387E-2
1.064897658E2,-1.477050781E-2,-1.039123535E-2,8.666992188E-3
1.065899550E2,-7.308959961E-3,1.304626465E-2,1.078796387E-2
1.066901748E2,-1.156616211E-2,1.409912109E-2,1.078796387E-2
1.067903945E2,-1.263427734E-2,1.409912109E-2,1.078796387E-2
1.068905837E2,-7.308959961E-3,-1.039123535E-2,1.506042480E-2
1.069908034E2,-8.377075195E-3,-2.317810059E-2,1.292419434E-2
1.070910232E2,3.341674805E-3,-1.678466797E-2,1.611328125E-2
1.071912124E2,-4.119873047E-3,1.623535156E-2,1.506042480E-2
1.072914321E2,-8.377075195E-3,2.902221680E-2,1.824951172E-2
1.073916518E2,-5.172729492E-3,1.516723633E-2,2.038574219E-2
1.074918410E2,1.525878906E-4,-4.013061523E-3,2.676391602E-2
1.075920302E2,-9.155273438E-4,-9.338378906E-3,2.571105957E-2
1.076922500E2,-1.983642578E-3,-4.013061523E-3,2.571105957E-2
1.077924392E2,-5.172729492E-3,-8.270263672E-3,2.038574219E-2
1.078926589E2,-6.240844727E-3,-1.145935059E-2,2.143859863E-2
1.079928786E2,4.409790039E-3,-5.065917969E-3,2.464294434E-2
1.080930678E2,5.477905273E-3,-1.876831055E-3,2.357482910E-2
1.081932876E2,1.525878906E-4,-1.039123535E-2,1.824951172E-2
1.082934768E2,1.506042480E-2,-4.013061523E-3,1.611328125E-2
1.083937270E2,1.525878906E-4,2.380371094E-3,1.931762695E-2
1.084939162E2,-7.308959961E-3,4.516601562E-3,2.464294434E-2
1.085941359E2,-3.051757812E-3,-6.134033203E-3,1.718139648E-2
1.086943252E2,1.080322266E-2,3.448486328E-3,2.038574219E-2
1.087945144E2,-1.370239258E-2,3.448486328E-3,2.038574219E-2
1.088947341E2,6.546020508E-3,2.593994141E-4,2.038574219E-2
1.089949538E2,-1.049804688E-2,1.327514648E-3,1.399230957E-2
1.090951430E2,1.525878906E-4,3.448486328E-3,1.718139648E-2
1.091953628E2,-1.583862305E-2,-1.359558105E-2,8.666992188E-3
1.092955520E2,1.187133789E-2,-8.087158203E-4,1.399230957E-2
1.093958022E2,4.409790039E-3,3.448486328E-3,1.506042480E-2
1.094959609E2,-1.263427734E-2,7.705688477E-3,1.399230957E-2
1.095961806E2,-1.156616211E-2,-9.338378906E-3,8.666992188E-3
1.096964003E2,4.409790039E-3,-8.270263672E-3,9.719848633E-3
1.097965896E2,1.292419434E-2,2.380371094E-3,2.143859863E-2
1.098968093E2,1.080322266E-2,1.730346680E-2,2.357482910E-2
1.099970290E2,2.273559570E-3,1.837158203E-2,2.250671387E-2
1.100972182E2,-1.156616211E-2,1.623535156E-2,1.824951172E-2
1.101974379E2,-1.263427734E-2,3.448486328E-3,1.824951172E-2
1.102976272E2,-7.308959961E-3,-8.087158203E-4,2.357482910E-2
1.103978774E2,8.666992188E-3,4.516601562E-3,3.210449219E-2
1.104980361E2,-6.240844727E-3,1.304626465E-2,2.783203125E-2
1.105982558E2,-8.377075195E-3,-7.202148438E-3,2.783203125E-2
1.106984450E2,5.477905273E-3,-6.134033203E-3,2.996826172E-2
1.107986648E2,-8.377075195E-3,-1.145935059E-2,2.571105957E-2
1.108988540E2,1.080322266E-2,8.773803711E-3,2.996826172E-2
1.109990737E2,-4.119873047E-3,1.091003418E-2,2.783203125E-2
1.110993239E2,3.341674805E-3,8.773803711E-3,2.357482910E-2
1.111995131E2,9.735107422E-3,-1.145935059E-2,2.464294434E-2
1.112997023E2,4.409790039E-3,3.448486328E-3,2.250671387E-2
1.113999221E2,8.666992188E-3,3.448486328E-3,1.506042480E-2
1.115001113E2,1.187133789E-2,2.156066895E-2,2.571105957E-2
1.116003005E2,9.735107422E-3,2.581787109E-2,1.931762695E-2
1.117005202E2,9.735107422E-3,3.114318848E-2,2.038574219E-2
1.118007399E2,1.826477051E-2,2.581787109E-2,3.103637695E-2
1.119009292E2,-5.172729492E-3,3.221130371E-2,2.464294434E-2
1.120011489E2,-2.009582520E-2,2.262878418E-2,2.143859863E-2
1.121013686E2,-8.377075195E-3,-8.270263672E-3,2.357482910E-2
1.122015578E2,9.735107422E-3,-3.063964844E-2,2.464294434E-2
1.123017775E2,4.409790039E-3,-2.210998535E-2,2.357482910E-2
1.124019973E2,9.735107422E-3,-8.270263672E-3,2.783203125E-2
1.125022170E2,-5.172729492E-3,8.773803711E-3,2.676391602E-2
1.126023757E2,-9.155273438E-4,5.584716797E-3,2.676391602E-2
1.127025954E2,-6.240844727E-3,3.448486328E-3,2.783203125E-2
1.128028151E2,-7.308959961E-3,-2.944946289E-3,3.636169434E-2
1.129030044E2,7.598876953E-3,-6.134033203E-3,2.890014648E-2
1.130032241E2,4.409790039E-3,-2.944946289E-3,3.315734863E-2
1.131034133E2,9.735107422E-3,-4.013061523E-3,3.529357910E-2
1.132036330E2,6.546020508E-3,-6.134033203E-3,3.422546387E-2
1.133038527E2,-6.240844727E-3,-1.039123535E-2,3.103637695E-2
1.134040725E2,-6.240844727E-3,-9.338378906E-3,2.890014648E-2
1.135041822E2,-8.377075195E-3,1.409912109E-2,3.315734863E-2
1.136044019E2,9.735107422E-3,8.773803711E-3,3.210449219E-2
1.137045911E2,9.735107422E-3,4.516601562E-3,2.250671387E-2
1.138048108E2,-5.172729492E-3,1.837158203E-2,1.824951172E-2
1.139050000E2,-3.074645996E-2,3.327941895E-2,2.357482910E-2
1.140052198E2,1.187133789E-2,-2.638244629E-2,2.571105957E-2
1.141054090E2,-1.156616211E-2,-8.270263672E-3,2.038574219E-2
1.142056287E2,-4.119873047E-3,6.652832031E-3,1.611328125E-2
1.143058484E2,-5.172729492E-3,2.581787109E-2,1.931762695E-2
1.144060681E2,1.525878906E-4,9.841918945E-3,2.143859863E-2
1.145062574E2,-8.377075195E-3,4.516601562E-3,1.931762695E-2
1.146064466E2,-4.119873047E-3,6.652832031E-3,2.038574219E-2
1.147066663E2,3.341674805E-3,-2.105712891E-2,2.038574219E-2
1.148068860E2,4.409790039E-3,-2.210998535E-2,1.824951172E-2
1.149070752E2,-5.172729492E-3,2.593994141E-4,1.292419434E-2
1.150072949E2,-1.370239258E-2,2.369689941E-2,1.718139648E-2
1.151074842E2,-3.051757812E-3,6.652832031E-3,1.185607910E-2
1.152077039E2,1.220703125E-3,4.516601562E-3,1.185607910E-2
1.153079236E2,-8.377075195E-3,1.091003418E-2,1.399230957E-2
1.154081433E2,-9.155273438E-4,2.380371094E-3,1.611328125E-2
1.155083325E2,1.080322266E-2,-1.252746582E-2,9.719848633E-3
1.156085218E2,-5.172729492E-3,-5.065917969E-3,1.292419434E-2
1.157087415E2,3.341674805E-3,4.516601562E-3,1.611328125E-2
1.158089307E2,3.341674805E-3,1.730346680E-2,1.824951172E-2
1.159091504E2,-1.477050781E-2,2.156066895E-2,2.250671387E-2
1.160093701E2,3.341674805E-3,2.593994141E-4,1.824951172E-2
1.161095594E2,-1.049804688E-2,2.380371094E-3,2.357482910E-2
1.162097791E2,-9.155273438E-4,7.705688477E-3,1.718139648E-2
1.163099683E2,3.341674805E-3,1.091003418E-2,2.996826172E-2
1.164102185E2,-2.009582520E-2,-5.065917969E-3,2.464294434E-2
1.165104077E2,8.666992188E-3,-2.317810059E-2,2.250671387E-2
1.166105970E2,5.477905273E-3,1.327514648E-3,2.996826172E-2
1.167108167E2,-1.156616211E-2,5.584716797E-3,2.676391602E-2
1.168110059E2,-1.477050781E-2,3.448486328E-3,2.571105957E-2
1.169112256E2,-9.155273438E-4,3.448486328E-3,2.357482910E-2
1.170114148E2,1.187133789E-2,9.841918945E-3,2.783203125E-2
1.171116345E2,2.252197266E-2,1.409912109E-2,3.210449219E-2
1.172118543E2,1.612854004E-2,7.705688477E-3,2.996826172E-2
1.173120435E2,1.826477051E-2,1.730346680E-2,3.529357910E-2
1.174122632E2,1.826477051E-2,1.730346680E-2,3.848266602E-2
1.175124524E2,1.931762695E-2,8.773803711E-3,3.848266602E-2
1.176126721E2,1.292419434E-2,1.091003418E-2,3.742980957E-2
1.177128919E2,1.399230957E-2,1.091003418E-2,3.529357910E-2
1.178130811E2,-1.902770996E-2,5.584716797E-3,2.996826172E-2
1.179133008E2,-1.477050781E-2,-1.252746582E-2,2.890014648E-2
1.180135205E2,4.409790039E-3,-6.134033203E-3,4.168701172E-2
1.181137097E2,7.598876953E-3,6.652832031E-3,3.422546387E-2
1.182139295E2,-1.583862305E-2,-1.571655273E-2,2.571105957E-2
1.183141187E2,2.273559570E-3,-1.145935059E-2,3.742980957E-2
1.184143384E2,-1.983642578E-3,3.448486328E-3,3.422546387E-2
1.185145276E2,-8.377075195E-3,-1.466369629E-2,3.210449219E-2
1.186147473E2,7.598876953E-3,-3.063964844E-2,3.210449219E-2
1.187149366E2,1.719665527E-2,-3.276062012E-2,3.422546387E-2
1.188151563E2,1.506042480E-2,8.773803711E-3,3.636169434E-2
1.189153760E2,2.359008789E-2,1.304626465E-2,3.422546387E-2
1.190155652E2,-1.049804688E-2,3.221130371E-2,3.103637695E-2
1.191157849E2,1.525878906E-4,-1.678466797E-2,3.529357910E-2
1.192159741E2,2.145385742E-2,-5.833435059E-2,3.315734863E-2
1.193161939E2,1.399230957E-2,3.114318848E-2,3.529357910E-2
1.194163831E2,3.341674805E-3,4.179382324E-2,3.103637695E-2
1.195166028E2,-5.172729492E-3,2.902221680E-2,3.529357910E-2
1.196168225E2,-1.049804688E-2,6.652832031E-3,3.529357910E-2
1.197170423E2,7.598876953E-3,4.516601562E-3,3.955078125E-2
1.198172315E2,1.399230957E-2,1.327514648E-3,3.848266602E-2
1.199174512E2,1.931762695E-2,1.091003418E-2,3.742980957E-2
1.200176404E2,6.546020508E-3,1.197814941E-2,3.636169434E-2
1.201178601E2,1.399230957E-2,-8.087158203E-4,4.061889648E-2
1.202180493E2,8.666992188E-3,-2.210998535E-2,3.422546387E-2
1.203182996E2,1.080322266E-2,-2.317810059E-2,3.315734863E-2
1.204184888E2,7.598876953E-3,-2.105712891E-2,3.210449219E-2
1.205186780E2,-5.172729492E-3,-1.876831055E-3,3.210449219E-2
1.206188977E2,-1.583862305E-2,2.902221680E-2,3.636169434E-2
1.207190869E2,-7.308959961E-3,2.156066895E-2,3.529357910E-2
1.208193067E2,1.220703125E-3,-1.252746582E-2,3.422546387E-2
1.209194959E2,-1.263427734E-2,-1.359558105E-2,2.996826172E-2
1.210197156E2,1.220703125E-3,1.091003418E-2,2.996826172E-2
1.211199353E2,1.292419434E-2,-6.134033203E-3,3.103637695E-2
1.212201245E2,-1.477050781E-2,1.091003418E-2,3.422546387E-2
1.213203443E2,1.292419434E-2,-2.944946289E-3,3.636169434E-2
1.214205640E2,-2.754211426E-2,2.902221680E-2,3.103637695E-2
1.215207837E2,2.273559570E-3,-8.087158203E-4,3.848266602E-2
1.216209729E2,-2.116394043E-2,7.705688477E-3,4.594421387E-2
1.217211927E2,1.525878906E-4,-3.915405273E-2,3.636169434E-2
1.218213819E2,1.220703125E-3,3.448486328E-3,4.275512695E-2
1.219215711E2,-2.221679688E-2,1.409912109E-2,4.061889648E-2
1.220217908E2,-1.156616211E-2,-1.998901367E-2,3.422546387E-2
1.221220105E2,8.666992188E-3,-2.317810059E-2,4.275512695E-2
1.222221997E2,1.187133789E-2,1.623535156E-2,4.701232910E-2
1.223224195E2,-6.240844727E-3,2.380371094E-3,3.848266602E-2
1.224226392E2,6.546020508E-3,-2.424621582E-2,3.529357910E-2
1.225228589E2,-1.983642578E-3,-1.678466797E-2,3.529357910E-2
1.226230481E2,1.292419434E-2,-2.210998535E-2,3.422546387E-2
1.227232373E2,-9.155273438E-4,-1.876831055E-3,3.742980957E-2
1.228234571E2,-9.155273438E-4,-1.039123535E-2,4.061889648E-2
1.229236463E2,5.477905273E-3,-3.915405273E-2,4.701232910E-2
1.230238660E2,-4.119873047E-3,-1.678466797E-2,4.168701172E-2
1.231240857E2,-4.119873047E-3,2.049255371E-2,3.422546387E-2
1.232242749E2,-1.902770996E-2,2.593994141E-4,2.890014648E-2
1.233244947E2,-5.172729492E-3,-1.571655273E-2,2.571105957E-2
1.234247191E2,1.292419434E-2,2.369689941E-2,3.848266602E-2
1.235249388E2,1.399230957E-2,1.730346680E-2,3.315734863E-2
1.236251281E2,-1.049804688E-2,-2.944946289E-3,2.357482910E-2
1.237253478E2,-1.689147949E-2,-8.087158203E-4,2.357482910E-2
1.238255675E2,-4.119873047E-3,1.327514648E-3,2.783203125E-2
1.239257567E2,7.598876953E-3,-1.359558105E-2,2.890014648E-2
1.240259764E2,4.409790039E-3,6.652832031E-3,3.210449219E-2
1.241261657E2,1.080322266E-2,8.773803711E-3,3.636169434E-2
1.242263854E2,1.080322266E-2,-6.134033203E-3,2.676391602E-2
1.243266051E2,-5.172729492E-3,2.369689941E-2,3.103637695E-2
1.244267943E2,-4.119873047E-3,6.652832031E-3,3.103637695E-2
1.245270446E2,2.273559570E-3,2.688598633E-2,3.315734863E-2
1.246272033E2,-3.713989258E-2,2.262878418E-2,2.890014648E-2
1.247274230E2,8.666992188E-3,-2.531433105E-2,2.250671387E-2
1.248276122E2,-2.221679688E-2,-1.571655273E-2,2.250671387E-2
1.249278319E2,8.666992188E-3,-8.270263672E-3,2.143859863E-2
1.250280516E2,-3.051757812E-3,-1.252746582E-2,1.824951172E-2
1.251282409E2,1.080322266E-2,-3.063964844E-2,2.038574219E-2
1.252284606E2,2.273559570E-3,-6.134033203E-3,1.931762695E-2
1.253286498E2,-1.983642578E-3,1.516723633E-2,1.931762695E-2
1.254288695E2,1.399230957E-2,7.705688477E-3,2.890014648E-2
1.255290587E2,1.220703125E-3,-1.359558105E-2,3.315734863E-2
1.256292784E2,7.598876953E-3,-1.359558105E-2,4.701232910E-2
1.257294982E2,3.742980957E-2,-1.466369629E-2,6.938171387E-2
1.258296874E2,1.399230957E-2,2.593994141E-4,7.257080078E-2
1.259299071E2,1.525878906E-4,2.380371094E-3,7.577514648E-2
1.260301268E2,1.525878906E-4,2.902221680E-2,7.470703125E-2
1.261303160E2,-1.477050781E-2,3.967285156E-2,7.470703125E-2
1.262305358E2,-1.049804688E-2,1.091003418E-2,6.192016602E-2
1.263307250E2,-2.435302734E-2,-1.876831055E-3,6.085205078E-2
1.264309447E2,-1.049804688E-2,-9.338378906E-3,5.447387695E-2
1.265311339E2,-1.049804688E-2,1.327514648E-3,5.340576172E-2
1.266313536E2,-7.308959961E-3,-1.039123535E-2,5.766296387E-2
1.267315734E2,1.525878906E-4,-1.039123535E-2,5.659484863E-2
1.268317931E2,6.546020508E-3,-9.338378906E-3,5.873107910E-2
1.269319823E2,-5.172729492E-3,-2.210998535E-2,5.233764648E-2
1.270321715E2,6.546020508E-3,-1.892089844E-2,5.552673340E-2
1.271323912E2,-4.119873047E-3,-1.571655273E-2,5.340576172E-2
1.272325805E2,4.275512695E-2,-5.065917969E-3,5.447387695E-2
1.273328002E2,3.103637695E-2,3.448486328E-3,5.020141602E-2
1.274330199E2,1.292419434E-2,-4.013061523E-3,3.636169434E-2
1.275332091E2,9.735107422E-3,9.841918945E-3,3.636169434E-2
1.276334288E2,-1.583862305E-2,3.753662109E-2,4.808044434E-2
1.277336180E2,-1.583862305E-2,-1.892089844E-2,3.210449219E-2
1.278338378E2,9.735107422E-3,-2.531433105E-2,2.890014648E-2
1.279340270E2,1.220703125E-3,1.197814941E-2,2.676391602E-2
1.280342467E2,2.677917480E-2,1.942443848E-2,3.422546387E-2
1.281344970E2,8.666992188E-3,5.584716797E-3,3.103637695E-2
1.282346862E2,4.409790039E-3,2.380371094E-3,2.996826172E-2
1.283348754E2,7.598876953E-3,3.448486328E-3,3.103637695E-2
1.284350646E2,2.145385742E-2,1.730346680E-2,4.061889648E-2
1.285352843E2,9.735107422E-3,2.049255371E-2,4.487609863E-2
1.286354735E2,-1.902770996E-2,4.179382324E-2,4.701232910E-2
1.287356932E2,-9.445190430E-3,1.837158203E-2,5.233764648E-2
1.288358825E2,-2.009582520E-2,-6.134033203E-3,4.380798340E-2
1.289361022E2,-2.116394043E-2,-2.944946289E-3,4.061889648E-2
1.290363219E2,-2.116394043E-2,1.327514648E-3,3.955078125E-2
1.291365111E2,-1.689147949E-2,-1.998901367E-2,3.742980957E-2
1.292367308E2,9.735107422E-3,-2.424621582E-2,4.380798340E-2
1.293369506E2,-1.983642578E-3,-1.785278320E-2,3.422546387E-2
1.294371398E2,3.341674805E-3,-1.571655273E-2,3.422546387E-2
1.295373595E2,3.341674805E-3,-3.703308105E-2,2.996826172E-2
1.296375487E2,-1.263427734E-2,-2.424621582E-2,3.103637695E-2
1.297377684E2,1.826477051E-2,-1.678466797E-2,3.529357910E-2
1.298379576E2,-1.049804688E-2,7.705688477E-3,3.315734863E-2
1.299382079E2,2.273559570E-3,-6.134033203E-3,3.315734863E-2
1.300383971E2,1.187133789E-2,-7.202148438E-3,3.636169434E-2
1.301385863E2,-1.983642578E-3,-8.270263672E-3,3.636169434E-2
1.302387755E2,7.598876953E-3,-8.270263672E-3,3.103637695E-2
1.303389952E2,7.598876953E-3,1.327514648E-3,3.103637695E-2
1.304392150E2,1.525878906E-4,2.380371094E-3,3.315734863E-2
1.305394347E2,-3.051757812E-3,-4.013061523E-3,3.210449219E-2
1.306396239E2,3.341674805E-3,1.623535156E-2,3.848266602E-2
1.307398131E2,2.273559570E-3,1.327514648E-3,3.315734863E-2
1.308400328E2,-1.477050781E-2,1.327514648E-3,3.315734863E-2
1.309402221E2,-2.542114258E-2,-4.013061523E-3,3.742980957E-2
1.310404418E2,-1.370239258E-2,2.593994141E-4,4.168701172E-2
1.311406310E2,-2.328491211E-2,6.652832031E-3,3.955078125E-2
1.312408507E2,-1.795959473E-2,7.705688477E-3,3.529357910E-2
1.313410704E2,-3.393554688E-2,1.942443848E-2,3.315734863E-2
1.314412596E2,-1.689147949E-2,2.262878418E-2,3.422546387E-2
1.315414794E2,-6.240844727E-3,1.409912109E-2,3.636169434E-2
1.316416991E2,-1.583862305E-2,-4.013061523E-3,2.783203125E-2
1.317418883E2,-9.445190430E-3,-1.892089844E-2,2.783203125E-2
1.318420775E2,-3.051757812E-3,-8.270263672E-3,2.996826172E-2
1.319422972E2,-3.051757812E-3,-1.571655273E-2,2.783203125E-2
1.320425170E2,1.080322266E-2,-1.785278320E-2,3.210449219E-2
1.321427062E2,1.187133789E-2,-2.210998535E-2,3.422546387E-2
1.322429259E2,1.826477051E-2,-1.145935059E-2,3.422546387E-2
1.323431456E2,1.220703125E-3,2.369689941E-2,3.636169434E-2
1.324433348E2,1.525878906E-4,1.942443848E-2,3.210449219E-2
1.325435546E2,-2.967834473E-2,9.841918945E-3,3.529357910E-2
1.326437743E2,-1.156616211E-2,1.730346680E-2,4.061889648E-2
1.327439635E2,1.292419434E-2,3.448486328E-3,3.955078125E-2
1.328441527E2,1.612854004E-2,-8.270263672E-3,3.422546387E-2
1.329443724E2,-7.308959961E-3,6.652832031E-3,3.422546387E-2
1.330445617E2,-2.861022949E-2,9.841918945E-3,3.103637695E-2
1.331447814E2,-7.308959961E-3,1.516723633E-2,3.103637695E-2
1.332449706E2,1.399230957E-2,-9.338378906E-3,3.103637695E-2
1.333451903E2,1.719665527E-2,-8.087158203E-4,3.422546387E-2
1.334453861E2,-1.902770996E-2,-5.065917969E-3,2.464294434E-2
1.335456058E2,-6.240844727E-3,-2.210998535E-2,2.250671387E-2
1.336457950E2,1.220703125E-3,-7.202148438E-3,2.996826172E-2
1.337459842E2,-1.795959473E-2,2.262878418E-2,3.210449219E-2
1.338462039E2,-2.328491211E-2,1.409912109E-2,2.783203125E-2
1.339464237E2,1.220703125E-3,-1.145935059E-2,3.315734863E-2
1.340466129E2,-1.263427734E-2,9.841918945E-3,3.103637695E-2
1.341468326E2,-2.754211426E-2,-2.944946289E-3,2.783203125E-2
1.342470523E2,1.525878906E-4,-2.944946289E-3,3.315734863E-2
1.343472415E2,-2.328491211E-2,2.474975586E-2,3.210449219E-2
1.344474307E2,-1.902770996E-2,-4.013061523E-3,2.571105957E-2
1.345476810E2,-9.445190430E-3,-4.013061523E-3,2.890014648E-2
1.346478702E2,-8.377075195E-3,5.584716797E-3,3.422546387E-2
1.347480594E2,1.612854004E-2,-6.134033203E-3,4.594421387E-2
1.348482791E2,1.399230957E-2,8.773803711E-3,4.275512695E-2
1.349484683E2,1.187133789E-2,-1.892089844E-2,3.955078125E-2
1.350486881E2,7.598876953E-3,2.156066895E-2,3.955078125E-2
1.351488773E2,1.187133789E-2,-9.338378906E-3,3.210449219E-2
1.352490970E2,-1.156616211E-2,3.448486328E-3,2.890014648E-2
1.353493167E2,5.477905273E-3,-5.065917969E-3,2.890014648E-2
1.354495059E2,-1.370239258E-2,1.730346680E-2,3.103637695E-2
1.355497257E2,3.341674805E-3,-7.202148438E-3,2.571105957E-2
1.356499149E2,-1.902770996E-2,-4.013061523E-3,2.890014648E-2
1.357501346E2,6.546020508E-3,-1.785278320E-2,2.676391602E-2
1.358503238E2,-1.370239258E-2,1.304626465E-2,2.464294434E-2
1.359505435E2,8.666992188E-3,-8.087158203E-4,2.890014648E-2
1.360507633E2,-8.377075195E-3,-5.065917969E-3,2.464294434E-2
1.361509830E2,9.735107422E-3,1.327514648E-3,2.996826172E-2
1.362511722E2,7.598876953E-3,-1.145935059E-2,3.422546387E-2
1.363513614E2,1.826477051E-2,6.652832031E-3,3.103637695E-2
1.364515811E2,1.719665527E-2,-1.359558105E-2,3.529357910E-2
1.365518314E2,-9.445190430E-3,-1.039123535E-2,3.742980957E-2
1.366519901E2,-2.648925781E-2,-5.065917969E-3,2.783203125E-2
1.367522098E2,1.826477051E-2,-9.338378906E-3,3.422546387E-2
1.368524295E2,-1.156616211E-2,-3.810119629E-2,2.676391602E-2
1.369526187E2,1.080322266E-2,-7.202148438E-3,3.422546387E-2
1.370528079E2,-1.983642578E-3,6.652832031E-3,3.315734863E-2
1.371530277E2,5.477905273E-3,2.688598633E-2,4.168701172E-2
1.372532474E2,-9.155273438E-4,1.942443848E-2,2.996826172E-2
1.373534366E2,-6.240844727E-3,2.380371094E-3,2.890014648E-2
1.374536563E2,1.826477051E-2,2.380371094E-3,3.529357910E-2
1.375538761E2,2.273559570E-3,2.156066895E-2,3.636169434E-2
1.376540653E2,-1.477050781E-2,4.286193848E-2,3.955078125E-2
1.377542850E2,3.341674805E-3,2.795410156E-2,3.848266602E-2
1.378544742E2,3.103637695E-2,1.409912109E-2,4.701232910E-2
1.379546939E2,1.719665527E-2,-1.571655273E-2,2.890014648E-2
1.380548831E2,-9.155273438E-4,1.327514648E-3,3.742980957E-2
1.381551029E2,-2.861022949E-2,-1.252746582E-2,3.315734863E-2
1.382553226E2,-1.689147949E-2,1.837158203E-2,3.210449219E-2
1.383555118E2,-9.445190430E-3,-1.466369629E-2,2.996826172E-2
1.384557010E2,7.598876953E-3,-3.489685059E-2,3.103637695E-2
1.385559207E2,5.477905273E-3,-7.202148438E-3,3.103637695E-2
1.386561405E2,-4.119873047E-3,3.221130371E-2,3.422546387E-2
1.387563297E2,-2.116394043E-2,2.902221680E-2,2.890014648E-2
1.388565494E2,-9.155273438E-4,-7.202148438E-3,2.676391602E-2
1.389567386E2,1.719665527E-2,-3.382873535E-2,2.571105957E-2
1.390569583E2,5.477905273E-3,5.584716797E-3,3.315734863E-2
1.391571475E2,-2.648925781E-2,2.581787109E-2,3.103637695E-2
1.392573673E2,-8.377075195E-3,1.623535156E-2,2.890014648E-2
1.393575870E2,-7.308959961E-3,4.516601562E-3,2.783203125E-2
1.394578067E2,1.292419434E-2,-1.678466797E-2,2.890014648E-2
1.395579959E2,1.612854004E-2,-1.252746582E-2,2.996826172E-2
1.396582157E2,-1.583862305E-2,-1.466369629E-2,3.422546387E-2
1.397584049E2,-2.435302734E-2,-2.850341797E-2,2.676391602E-2
1.398585941E2,8.666992188E-3,9.841918945E-3,2.250671387E-2
1.399588138E2,-4.119873047E-3,3.967285156E-2,4.061889648E-2
1.400590335E2,-8.377075195E-3,5.032348633E-2,3.955078125E-2
1.401592533E2,-1.370239258E-2,2.049255371E-2,2.996826172E-2
1.402594425E2,-1.902770996E-2,7.705688477E-3,2.996826172E-2
1.403596622E2,1.719665527E-2,-1.252746582E-2,2.996826172E-2
1.404598514E2,-5.172729492E-3,-5.065917969E-3,3.210449219E-2
1.405600711E2,-1.049804688E-2,6.652832031E-3,3.103637695E-2
1.406602603E2,-1.902770996E-2,-1.252746582E-2,2.571105957E-2
1.407604801E2,-1.983642578E-3,-1.466369629E-2,2.996826172E-2
1.408606693E2,-2.116394043E-2,-8.270263672E-3,3.636169434E-2
1.409608890E2,6.546020508E-3,-1.145935059E-2,2.890014648E-2
1.410611087E2,-2.009582520E-2,5.584716797E-3,3.422546387E-2
1.411612979E2,-1.049804688E-2,1.197814941E-2,2.996826172E-2
1.412615177E2,3.341674805E-3,-6.134033203E-3,2.783203125E-2
1.413617069E2,-8.377075195E-3,-1.145935059E-2,2.783203125E-2
1.414619266E2,2.273559570E-3,-1.359558105E-2,2.464294434E-2
1.415621158E2,-8.377075195E-3,2.380371094E-3,3.103637695E-2
1.416623355E2,1.292419434E-2,-8.087158203E-4,2.464294434E-2
1.417625247E2,4.409790039E-3,9.841918945E-3,2.783203125E-2
1.418627445E2,1.525878906E-4,6.652832031E-3,2.357482910E-2
1.419629642E2,1.719665527E-2,5.584716797E-3,2.890014648E-2
1.420631534E2,-9.155273438E-4,-1.876831055E-3,2.571105957E-2
1.421633731E2,-4.119873047E-3,-1.359558105E-2,2.250671387E-2
1.422635623E2,3.103637695E-2,1.327514648E-3,3.103637695E-2
1.423638126E2,1.292419434E-2,1.304626465E-2,2.783203125E-2
1.424640018E2,1.525878906E-4,9.841918945E-3,2.143859863E-2
1.425641910E2,8.666992188E-3,2.581787109E-2,2.250671387E-2
1.426644107E2,4.409790039E-3,6.652832031E-3,1.399230957E-2
1.427646610E2,1.187133789E-2,1.091003418E-2,2.676391602E-2
1.428648502E2,8.666992188E-3,8.773803711E-3,2.250671387E-2
1.429650699E2,8.666992188E-3,2.593994141E-4,2.143859863E-2
1.430652591E2,9.735107422E-3,1.623535156E-2,1.718139648E-2
1.431654788E2,1.826477051E-2,-8.087158203E-4,2.038574219E-2
1.432656681E2,2.359008789E-2,5.584716797E-3,2.038574219E-2
1.433658878E2,2.996826172E-2,6.652832031E-3,2.038574219E-2
1.434661042E2,1.826477051E-2,1.516723633E-2,2.038574219E-2
1.435662934E2,1.220703125E-3,8.773803711E-3,1.718139648E-2
1.436665131E2,-1.983642578E-3,2.380371094E-3,1.506042480E-2
1.437667023E2,-9.155273438E-4,1.197814941E-2,1.824951172E-2
1.438668915E2,3.849792480E-2,-6.134033203E-3,2.996826172E-2
1.439670807E2,1.220703125E-3,1.304626465E-2,2.464294434E-2
1.440673005E2,7.598876953E-3,1.623535156E-2,1.931762695E-2
1.441674897E2,1.506042480E-2,2.262878418E-2,2.357482910E-2
1.442677094E2,1.826477051E-2,2.593994141E-4,2.676391602E-2
1.443679291E2,3.210449219E-2,8.773803711E-3,2.783203125E-2
1.444681183E2,7.598876953E-3,3.448486328E-3,3.103637695E-2
1.445683381E2,2.464294434E-2,1.327514648E-3,3.636169434E-2
1.446685578E2,1.187133789E-2,5.584716797E-3,2.890014648E-2
1.447687775E2,1.719665527E-2,2.380371094E-3,2.676391602E-2
1.448689972E2,-8.377075195E-3,1.516723633E-2,2.250671387E-2
1.449691864E2,1.506042480E-2,1.197814941E-2,2.783203125E-2
1.450693757E2,1.506042480E-2,9.841918945E-3,2.783203125E-2
1.451695649E2,9.735107422E-3,2.380371094E-3,2.143859863E-2
1.452697846E2,4.275512695E-2,-1.998901367E-2,2.890014648E-2
1.453699738E2,6.546020508E-3,-7.202148438E-3,2.676391602E-2
1.454701935E2,1.612854004E-2,1.304626465E-2,3.422546387E-2
1.455704133E2,1.292419434E-2,1.623535156E-2,2.676391602E-2
1.456706025E2,3.956604004E-2,-1.252746582E-2,2.890014648E-2
1.457708222E2,8.666992188E-3,2.156066895E-2,2.783203125E-2
1.458710114E2,1.931762695E-2,1.942443848E-2,3.315734863E-2
1.459712311E2,-1.689147949E-2,3.221130371E-2,2.890014648E-2
1.460714509E2,-7.308959961E-3,1.730346680E-2,2.890014648E-2
1.461716401E2,4.409790039E-3,4.516601562E-3,2.676391602E-2
1.462718598E2,2.038574219E-2,-1.252746582E-2,2.676391602E-2
1.463720490E2,3.636169434E-2,-1.252746582E-2,2.357482910E-2
1.464722687E2,-9.155273438E-4,2.156066895E-2,1.718139648E-2
1.465724579E2,1.080322266E-2,3.448486328E-3,1.611328125E-2
1.466727082E2,1.525878906E-4,8.773803711E-3,1.824951172E-2
1.467728974E2,-1.263427734E-2,2.369689941E-2,1.718139648E-2
1.468730866E2,1.525878906E-4,1.091003418E-2,1.718139648E-2
1.469732758E2,1.506042480E-2,-1.571655273E-2,1.824951172E-2
1.470734955E2,-4.119873047E-3,-2.944946289E-3,1.185607910E-2
1.471737153E2,2.038574219E-2,2.380371094E-3,1.506042480E-2
1.472739350E2,2.464294434E-2,2.581787109E-2,1.824951172E-2
1.473741242E2,2.145385742E-2,1.516723633E-2,1.399230957E-2
1.474743134E2,5.477905273E-3,-9.338378906E-3,1.399230957E-2
1.475745331E2,4.409790039E-3,1.516723633E-2,1.399230957E-2
1.476747529E2,-6.240844727E-3,2.156066895E-2,1.078796387E-2
1.477749421E2,7.598876953E-3,-8.087158203E-4,1.611328125E-2
1.478751618E2,7.598876953E-3,1.197814941E-2,1.718139648E-2
1.479753510E2,4.409790039E-3,2.593994141E-4,7.598876953E-3
1.480755707E2,3.103637695E-2,-7.202148438E-3,7.598876953E-3
1.481757599E2,2.273559570E-3,-1.252746582E-2,6.530761719E-3
1.482759797E2,-6.240844727E-3,-8.087158203E-4,1.373291016E-4
1.483761994E2,9.735107422E-3,5.584716797E-3,3.341674805E-3
1.484763886E2,1.506042480E-2,2.593994141E-4,6.530761719E-3
1.485766083E2,-5.172729492E-3,1.623535156E-2,7.598876953E-3
1.486768280E2,1.525878906E-4,-1.876831055E-3,7.598876953E-3
1.487770173E2,2.273559570E-3,1.730346680E-2,1.185607910E-2
1.488772370E2,-7.308959961E-3,1.197814941E-2,5.462646484E-3
1.489774262E2,-5.172729492E-3,-5.065917969E-3,3.341674805E-3
1.490776459E2,-6.240844727E-3,6.652832031E-3,2.273559570E-3
1.491778351E2,1.719665527E-2,8.773803711E-3,5.462646484E-3
1.492780549E2,1.292419434E-2,-5.065917969E-3,6.530761719E-3
1.493782441E2,1.399230957E-2,-8.270263672E-3,7.598876953E-3
1.494784638E2,1.220703125E-3,3.448486328E-3,4.394531250E-3
1.495786835E2,8.666992188E-3,-6.134033203E-3,3.341674805E-3
1.496789032E2,1.612854004E-2,-5.065917969E-3,8.666992188E-3
1.497790925E2,4.409790039E-3,2.369689941E-2,9.719848633E-3
1.498792817E2,-6.240844727E-3,4.074096680E-2,4.394531250E-3
1.499795014E2,1.612854004E-2,-8.087158203E-4,6.530761719E-3
1.500796906E2,-1.583862305E-2,-9.338378906E-3,3.341674805E-3
1.501799103E2,-1.370239258E-2,1.327514648E-3,1.205444336E-3
1.502801301E2,-4.119873047E-3,2.380371094E-3,2.273559570E-3
1.503803498E2,-3.051757812E-3,7.705688477E-3,4.394531250E-3
1.504805390E2,-1.049804688E-2,-1.876831055E-3,-3.051757812E-3
1.505807587E2,-1.156616211E-2,-6.134033203E-3,3.341674805E-3
1.506809784E2,-6.240844727E-3,-1.145935059E-2,-3.051757812E-3
1.507811676E2,-9.155273438E-4,-1.876831055E-3,-8.377075195E-3
1.508813569E2,-8.377075195E-3,2.156066895E-2,-4.119873047E-3
1.509815766E2,6.546020508E-3,-1.145935059E-2,-1.370239258E-2
1.510817658E2,-5.172729492E-3,-4.013061523E-3,-1.690673828E-2
1.511819855E2,1.220703125E-3,8.773803711E-3,-6.256103516E-3
1.512822052E2,-6.240844727E-3,2.380371094E-3,-5.187988281E-3
1.513823945E2,-6.240844727E-3,2.380371094E-3,-9.307861328E-4
1.514826142E2,-3.051757812E-3,2.380371094E-3,-9.307861328E-4
1.515828034E2,-1.370239258E-2,2.156066895E-2,-3.051757812E-3
1.516830231E2,2.273559570E-3,-8.087158203E-4,-6.256103516E-3
1.517832123E2,1.080322266E-2,1.730346680E-2,-3.051757812E-3
1.518834321E2,1.292419434E-2,1.730346680E-2,-6.256103516E-3
1.519836518E2,1.220703125E-3,-1.678466797E-2,1.373291016E-4
1.520838410E2,1.399230957E-2,2.593994141E-4,4.394531250E-3
1.521840607E2,-1.983642578E-3,1.730346680E-2,-1.998901367E-3
1.522842499E2,-1.263427734E-2,6.652832031E-3,-1.998901367E-3
1.523844697E2,-9.445190430E-3,-1.876831055E-3,1.205444336E-3
1.524846589E2,1.399230957E-2,-6.134033203E-3,-1.998901367E-3
1.525848786E2,-1.263427734E-2,1.327514648E-3,-1.998901367E-3
1.526850983E2,-7.308959961E-3,-6.134033203E-3,-6.256103516E-3
1.527852875E2,-4.119873047E-3,1.409912109E-2,-9.307861328E-4
1.528855072E2,4.409790039E-3,2.369689941E-2,-1.998901367E-3
1.529856965E2,7.598876953E-3,8.773803711E-3,-8.377075195E-3
1.530859162E2,3.341674805E-3,1.327514648E-3,-1.998901367E-3
1.531861054E2,2.273559570E-3,-1.876831055E-3,-4.119873047E-3
1.532863251E2,-2.435302734E-2,-8.087158203E-4,-1.370239258E-2
1.533865143E2,-6.240844727E-3,2.593994141E-4,-9.307861328E-4
1.534867593E2,1.525878906E-4,-4.013061523E-3,-1.998901367E-3
1.535869791E2,-1.263427734E-2,2.369689941E-2,1.205444336E-3
1.536871988E2,1.826477051E-2,2.380371094E-3,-1.998901367E-3
1.537873880E2,-1.983642578E-3,-7.202148438E-3,1.373291016E-4
1.538876077E2,5.477905273E-3,1.730346680E-2,8.666992188E-3
1.539877969E2,-5.172729492E-3,3.753662109E-2,8.666992188E-3
1.540880167E2,1.612854004E-2,-2.944946289E-3,5.462646484E-3
1.541882059E2,-9.445190430E-3,7.705688477E-3,3.341674805E-3
1.542884256E2,9.735107422E-3,-4.013061523E-3,-5.187988281E-3
1.543886148E2,6.546020508E-3,2.380371094E-3,-9.307861328E-4
1.544888345E2,-1.477050781E-2,1.942443848E-2,4.394531250E-3
1.545890237E2,-6.240844727E-3,-1.892089844E-2,-6.256103516E-3
1.546892740E2,-9.155273438E-4,1.091003418E-2,9.719848633E-3
1.547894632E2,-7.308959961E-3,5.584716797E-3,2.273559570E-3
1.548896524E2,-6.240844727E-3,1.623535156E-2,7.598876953E-3
1.549898721E2,7.598876953E-3,-7.202148438E-3,-5.187988281E-3
1.550900613E2,1.506042480E-2,-2.424621582E-2,-1.051330566E-2
1.551902811E2,7.598876953E-3,-7.202148438E-3,-3.051757812E-3
1.552905008E2,-2.542114258E-2,1.837158203E-2,-9.307861328E-4
1.553906900E2,-1.370239258E-2,2.049255371E-2,-9.307861328E-4
1.554909097E2,1.612854004E-2,-7.202148438E-3,-5.187988281E-3
1.555911294E2,1.187133789E-2,-7.202148438E-3,5.462646484E-3
1.556913187E2,9.735107422E-3,7.705688477E-3,1.373291016E-4
1.557915079E2,6.546020508E-3,1.304626465E-2,-6.256103516E-3
1.558917276E2,8.666992188E-3,-2.944946289E-3,-6.256103516E-3
1.559919473E2,3.341674805E-3,-8.270263672E-3,1.373291016E-4
1.560921365E2,-1.049804688E-2,1.304626465E-2,1.373291016E-4
1.561923562E2,-2.009582520E-2,1.091003418E-2,-4.119873047E-3
1.562925455E2,-6.240844727E-3,-6.134033203E-3,1.373291016E-4
1.563927652E2,-9.445190430E-3,7.705688477E-3,1.373291016E-4
1.564929849E2,-1.583862305E-2,1.197814941E-2,-9.307861328E-4
1.565931741E2,-9.445190430E-3,-5.065917969E-3,-4.119873047E-3
1.566934244E2,1.187133789E-2,-3.382873535E-2,-9.307861328E-4
1.567935831E2,1.931762695E-2,-9.338378906E-3,9.719848633E-3
1.568938028E2,-3.051757812E-3,1.409912109E-2,-1.998901367E-3
1.569940225E2,-1.983642578E-3,9.841918945E-3,3.341674805E-3
1.570942117E2,-2.116394043E-2,1.197814941E-2,1.373291016E-4
1.571944009E2,1.220703125E-3,8.773803711E-3,1.205444336E-3
1.572946207E2,9.735107422E-3,2.474975586E-2,7.598876953E-3
1.573948404E2,1.525878906E-4,1.197814941E-2,-1.998901367E-3
1.574950296E2,-1.263427734E-2,5.584716797E-3,1.205444336E-3
1.575952493E2,4.409790039E-3,3.448486328E-3,-1.998901367E-3
1.576954690E2,1.399230957E-2,-5.065917969E-3,1.205444336E-3
1.577956583E2,-3.051757812E-3,-1.892089844E-2,2.273559570E-3
1.578958780E2,1.187133789E-2,-8.087158203E-4,2.273559570E-3
1.579960672E2,1.719665527E-2,-1.466369629E-2,1.205444336E-3
1.580962869E2,2.273559570E-3,-1.145935059E-2,-5.187988281E-3
1.581964761E2,-6.240844727E-3,-1.466369629E-2,-3.051757812E-3
1.582966958E2,-7.308959961E-3,-7.202148438E-3,3.341674805E-3
1.583968851E2,-2.009582520E-2,6.652832031E-3,-1.998901367E-3
1.584971048E2,-4.119873047E-3,1.516723633E-2,1.205444336E-3
1.585973245E2,1.292419434E-2,-8.270263672E-3,-9.307861328E-4
1.586975137E2,7.598876953E-3,2.380371094E-3,-9.307861328E-4
1.587977334E2,5.477905273E-3,2.688598633E-2,-4.119873047E-3
1.588979227E2,6.546020508E-3,9.841918945E-3,1.205444336E-3
1.589981424E2,6.546020508E-3,-8.087158203E-4,2.273559570E-3
1.590983621E2,-1.689147949E-2,2.581787109E-2,1.373291016E-4
1.591985513E2,-1.049804688E-2,1.327514648E-3,-1.998901367E-3
1.592987405E2,6.546020508E-3,4.516601562E-3,4.394531250E-3
1.593989603E2,-1.477050781E-2,1.409912109E-2,1.205444336E-3
1.594991800E2,-9.445190430E-3,-5.065917969E-3,-6.256103516E-3
1.595993692E2,-3.051757812E-3,-2.944946289E-3,-5.187988281E-3
1.596995584E2,5.477905273E-3,-1.039123535E-2,-3.051757812E-3
1.597997781E2,-1.983642578E-3,-1.876831055E-3,-4.119873047E-3
1.598999979E2,-9.155273438E-4,-8.087158203E-4,-1.998901367E-3
1.600002176E2,1.187133789E-2,-6.134033203E-3,2.273559570E-3
1.601004068E2,-4.119873047E-3,3.448486328E-3,-5.187988281E-3
1.602006265E2,-9.155273438E-4,1.304626465E-2,-1.998901367E-3
1.603008157E2,1.080322266E-2,-4.013061523E-3,-1.998901367E-3
1.604010660E2,1.612854004E-2,-1.876831055E-3,-9.307861328E-4
1.605012857E2,-1.049804688E-2,3.114318848E-2,-4.119873047E-3
1.606014749E2,-6.240844727E-3,1.942443848E-2,-9.445190430E-3
1.607016641E2,2.273559570E-3,3.448486328E-3,-1.998901367E-3
1.608018533E2,-9.155273438E-4,-1.876831055E-3,-3.051757812E-3
1.609020730E2,5.477905273E-3,-8.087158203E-4,-3.051757812E-3
1.610022623E2,1.525878906E-4,6.652832031E-3,4.394531250E-3
1.611024820E2,-1.902770996E-2,6.652832031E-3,-1.998901367E-3
1.612026712E2,-9.445190430E-3,9.841918945E-3,-3.051757812E-3
1.613028909E2,1.506042480E-2,4.516601562E-3,-9.307861328E-4
1.614030801E2,6.546020508E-3,6.652832031E-3,-1.998901367E-3
1.615032999E2,-5.172729492E-3,2.593994141E-4,-5.187988281E-3
1.616034891E2,1.399230957E-2,-6.134033203E-3,-9.307861328E-4
1.617037088E2,5.477905273E-3,9.841918945E-3,-9.307861328E-4
1.618039590E2,-1.477050781E-2,2.049255371E-2,-1.998901367E-3
1.619041177E2,-3.051757812E-3,2.049255371E-2,-9.307861328E-4
1.620043375E2,-9.155273438E-4,-7.202148438E-3,1.399230957E-2
1.621045267E2,-1.370239258E-2,1.942443848E-2,-1.998901367E-3
1.622047464E2,-1.049804688E-2,7.908630371E-2,2.143859863E-2
1.623049356E2,-2.328491211E-2,3.753662109E-2,-1.158142090E-2
1.624051553E2,1.399230957E-2,-1.571655273E-2,1.718139648E-2
1.625053750E2,-2.328491211E-2,2.688598633E-2,2.273559570E-3
1.626055643E2,2.996826172E-2,-7.202148438E-3,8.666992188E-3
1.627057840E2,-1.689147949E-2,-2.105712891E-2,1.205444336E-3
1.628060037E2,-2.542114258E-2,-2.105712891E-2,-6.256103516E-3
1.629061929E2,-1.689147949E-2,1.327514648E-3,6.530761719E-3
1.630063821E2,4.409790039E-3,-8.087158203E-4,-7.324218750E-3
1.631066019E2,2.677917480E-2,1.197814941E-2,1.611328125E-2
1.632068216E2,5.477905273E-3,1.304626465E-2,-1.051330566E-2
1.633070108E2,2.784729004E-2,8.773803711E-3,1.399230957E-2
1.634072305E2,-4.032897949E-2,2.581787109E-2,-6.256103516E-3
1.635073826E2,-4.119873047E-3,-2.944946289E-3,3.341674805E-3
1.636076024E2,-1.983642578E-3,3.221130371E-2,2.273559570E-3
1.637077916E2,-3.181457520E-2,2.688598633E-2,-1.370239258E-2
1.638080113E2,-8.377075195E-3,9.841918945E-3,-3.051757812E-3
1.639082005E2,-9.155273438E-4,-6.134033203E-3,-1.904296875E-2
1.640084202E2,1.506042480E-2,1.304626465E-2,5.462646484E-3
1.641086400E2,-6.240844727E-3,1.304626465E-2,-9.445190430E-3
1.642088292E2,-7.308959961E-3,5.584716797E-3,-9.445190430E-3
1.643090489E2,1.080322266E-2,-2.944946289E-3,-5.187988281E-3
1.644092381E2,-3.051757812E-3,1.837158203E-2,-9.307861328E-4
1.645094578E2,5.477905273E-3,9.841918945E-3,-4.119873047E-3
1.646096776E2,-4.119873047E-3,-1.039123535E-2,-6.256103516E-3
1.647098973E2,1.080322266E-2,-1.145935059E-2,1.205444336E-3
1.648100865E2,-1.795959473E-2,-8.270263672E-3,-1.158142090E-2
1.649102757E2,-5.172729492E-3,-2.105712891E-2,-9.307861328E-4
1.650104954E2,1.719665527E-2,-1.359558105E-2,8.666992188E-3
1.651107152E2,-3.051757812E-3,-5.065917969E-3,-5.187988281E-3
1.652109044E2,-1.477050781E-2,1.197814941E-2,1.078796387E-2
1.653111241E2,-8.377075195E-3,8.773803711E-3,-8.377075195E-3
1.654113133E2,1.719665527E-2,2.593994141E-4,1.373291016E-4
1.655115025E2,1.292419434E-2,-2.638244629E-2,-4.119873047E-3
1.656117222E2,6.546020508E-3,-6.134033203E-3,-3.051757812E-3
1.657119420E2,-1.370239258E-2,-4.013061523E-3,-1.998901367E-3
1.658121617E2,-9.155273438E-4,-2.944946289E-3,1.373291016E-4
1.659123509E2,-5.172729492E-3,1.091003418E-2,1.824951172E-2
1.660125706E2,-2.116394043E-2,8.773803711E-3,-9.445190430E-3
1.661127598E2,1.399230957E-2,1.942443848E-2,1.292419434E-2
1.662129490E2,-2.861022949E-2,3.327941895E-2,-8.377075195E-3
1.663131688E2,1.612854004E-2,1.091003418E-2,6.530761719E-3
1.664133885E2,2.145385742E-2,-1.145935059E-2,5.462646484E-3
1.665135777E2,4.409790039E-3,3.448486328E-3,-4.119873047E-3
1.666137974E2,-1.049804688E-2,1.942443848E-2,7.598876953E-3
1.667140172E2,-3.051757812E-3,-5.065917969E-3,-1.370239258E-2
1.668142064E2,1.826477051E-2,-2.210998535E-2,-9.307861328E-4
1.669143956E2,-5.172729492E-3,4.074096680E-2,1.078796387E-2
1.670146153E2,5.477905273E-3,1.623535156E-2,-1.998901367E-3
1.671148350E2,-3.288269043E-2,-2.531433105E-2,-1.158142090E-2
1.672150242E2,1.080322266E-2,-3.596496582E-2,2.273559570E-3
1.673152440E2,9.735107422E-3,1.197814941E-2,3.341674805E-3
1.674154637E2,-7.308959961E-3,3.448486328E-3,-9.307861328E-4
1.675156529E2,-1.370239258E-2,2.593994141E-4,-9.307861328E-4
1.676158726E2,7.598876953E-3,-2.105712891E-2,-4.119873047E-3
1.677160618E2,-7.308959961E-3,2.474975586E-2,-7.324218750E-3
1.678162816E2,-1.583862305E-2,5.032348633E-2,1.931762695E-2
1.679164708E2,-3.500366211E-2,2.688598633E-2,-1.051330566E-2
1.680166905E2,2.145385742E-2,6.652832031E-3,1.078796387E-2
1.681168797E2,-4.565429688E-2,2.581787109E-2,-5.187988281E-3
1.682170994E2,5.477905273E-3,8.773803711E-3,1.205444336E-3
1.683172886E2,2.273559570E-3,2.049255371E-2,2.273559570E-3
1.684175084E2,6.546020508E-3,1.197814941E-2,-4.119873047E-3
1.685177281E2,1.187133789E-2,-1.039123535E-2,3.341674805E-3
1.686179173E2,5.477905273E-3,-4.661560059E-2,-7.324218750E-3
1.687181370E2,1.292419434E-2,-1.571655273E-2,5.462646484E-3
1.688183873E2,1.292419434E-2,2.688598633E-2,1.506042480E-2
1.689185460E2,-2.221679688E-2,2.581787109E-2,-1.370239258E-2
1.690187657E2,3.636169434E-2,6.652832031E-3,2.143859863E-2
1.691189549E2,-1.263427734E-2,2.380371094E-3,-4.119873047E-3
1.692191441E2,3.956604004E-2,6.652832031E-3,7.598876953E-3
1.693193638E2,-5.172729492E-3,2.795410156E-2,6.530761719E-3
1.694195836E2,-2.967834473E-2,2.593994141E-4,1.373291016E-4
1.695197728E2,-5.172729492E-3,-1.678466797E-2,-1.998901367E-3
1.696199925E2,1.506042480E-2,-2.743530273E-2,-9.307861328E-4
1.697201817E2,1.187133789E-2,-1.678466797E-2,-5.187988281E-3
1.698204320E2,6.546020508E-3,-1.876831055E-3,5.462646484E-3
1.699206212E2,-5.172729492E-3,-7.202148438E-3,-2.542114258E-2
1.700208104E2,-6.240844727E-3,-5.065917969E-3,5.462646484E-3
1.701210301E2,-2.328491211E-2,1.327514648E-3,-7.324218750E-3
1.702212193E2,1.506042480E-2,1.091003418E-2,9.719848633E-3
1.703214390E2,4.409790039E-3,3.434753418E-2,6.530761719E-3
1.704216282E2,-2.542114258E-2,2.688598633E-2,-8.377075195E-3
1.705218480E2,-8.377075195E-3,5.584716797E-3,1.373291016E-4
1.706220677E2,7.598876953E-3,-1.359558105E-2,-8.377075195E-3
1.707222569E2,2.252197266E-2,-2.957153320E-2,-1.998901367E-3
1.708224766E2,-1.983642578E-3,1.730346680E-2,1.292419434E-2
1.709226658E2,-2.754211426E-2,2.593994141E-4,-1.264953613E-2
1.710228856E2,-4.119873047E-3,-9.338378906E-3,7.598876953E-3
1.711230748E2,-2.116394043E-2,3.448486328E-3,-9.307861328E-4
1.712233250E2,-6.240844727E-3,2.156066895E-2,1.205444336E-3
1.713235448E2,1.187133789E-2,-1.039123535E-2,1.205444336E-3
1.714237340E2,3.341674805E-3,9.841918945E-3,1.373291016E-4
1.715239232E2,1.187133789E-2,-2.531433105E-2,-1.583862305E-2
1.716241429E2,-8.377075195E-3,-1.252746582E-2,-4.119873047E-3
1.717243321E2,1.080322266E-2,-9.338378906E-3,1.078796387E-2
1.718245213E2,-2.328491211E-2,1.304626465E-2,-5.187988281E-3
1.719247410E2,1.220703125E-3,-8.087158203E-4,-9.307861328E-4
1.720249302E2,1.187133789E-2,3.448486328E-3,3.341674805E-3
1.721251500E2,1.187133789E-2,4.516601562E-3,3.341674805E-3
1.722253392E2,3.341674805E-3,6.652832031E-3,1.373291016E-4
1.723255589E2,6.546020508E-3,-2.105712891E-2,-6.256103516E-3
1.724257786E2,1.931762695E-2,-3.170776367E-2,-8.377075195E-3
1.725259678E2,-4.119873047E-3,1.304626465E-2,-9.445190430E-3
1.726261876E2,-1.156616211E-2,1.730346680E-2,1.078796387E-2
1.727264073E2,1.525878906E-4,-1.145935059E-2,1.205444336E-3
1.728266270E2,1.525878906E-4,-8.087158203E-4,-3.051757812E-3
1.729268162E2,-7.308959961E-3,1.197814941E-2,-4.119873047E-3
1.730270054E2,1.506042480E-2,-8.270263672E-3,-6.256103516E-3
1.731272252E2,-9.155273438E-4,3.434753418E-2,4.394531250E-3
1.732274144E2,1.612854004E-2,-9.338378906E-3,-9.307861328E-4
1.733276341E2,5.477905273E-3,-2.105712891E-2,-8.377075195E-3
1.734278475E2,2.996826172E-2,-1.039123535E-2,-4.119873047E-3
1.735280672E2,5.477905273E-3,-1.678466797E-2,-8.377075195E-3
1.736282869E2,1.080322266E-2,4.516601562E-3,-8.377075195E-3
1.737284761E2,-1.583862305E-2,4.818725586E-2,-7.324218750E-3
1.738287264E2,-1.902770996E-2,1.516723633E-2,-9.307861328E-4
1.739288851E2,1.525878906E-4,7.705688477E-3,5.462646484E-3
1.740291048E2,-1.263427734E-2,2.581787109E-2,1.205444336E-3
1.741293245E2,8.666992188E-3,-2.944946289E-3,-8.377075195E-3
1.742295137E2,1.931762695E-2,-9.338378906E-3,-6.256103516E-3
1.743297335E2,-3.051757812E-3,-4.013061523E-3,3.341674805E-3
1.744299227E2,1.399230957E-2,-9.338378906E-3,-9.307861328E-4
1.745301424E2,-4.119873047E-3,4.516601562E-3,4.394531250E-3
1.746303316E2,-3.051757812E-3,3.646850586E-2,3.341674805E-3
1.747305513E2,-1.689147949E-2,1.730346680E-2,-7.324218750E-3
1.748307711E2,1.399230957E-2,-2.105712891E-2,-5.187988281E-3
1.749309603E2,-1.263427734E-2,1.091003418E-2,1.373291016E-4
1.750311495E2,-1.156616211E-2,1.623535156E-2,3.341674805E-3
1.751313692E2,-6.240844727E-3,1.197814941E-2,8.666992188E-3
1.752315889E2,1.719665527E-2,-1.039123535E-2,-5.187988281E-3
1.753317781E2,-2.967834473E-2,1.837158203E-2,-8.377075195E-3
1.754320284E2,-3.051757812E-3,7.705688477E-3,1.373291016E-4
1.755321871E2,3.317260742E-2,4.516601562E-3,1.506042480E-2
1.756324068E2,-1.370239258E-2,2.369689941E-2,2.273559570E-3
1.757325960E2,-3.713989258E-2,5.584716797E-3,-8.377075195E-3
1.758328157E2,4.409790039E-3,-1.876831055E-3,-1.998901367E-3
1.759330355E2,2.273559570E-3,3.967285156E-2,1.185607910E-2
1.760332247E2,-6.240844727E-3,1.091003418E-2,-4.119873047E-3
1.761334444E2,-9.445190430E-3,-1.678466797E-2,-6.256103516E-3
1.762336336E2,9.735107422E-3,6.652832031E-3,-9.307861328E-4
1.763338533E2,-3.051757812E-3,1.091003418E-2,5.462646484E-3
1.764340425E2,6.546020508E-3,-7.202148438E-3,-8.377075195E-3
1.765342623E2,3.341674805E-3,-1.571655273E-2,-9.445190430E-3
1.766344820E2,1.525878906E-4,3.448486328E-3,-8.377075195E-3
1.767346712E2,-3.051757812E-3,8.773803711E-3,-1.264953613E-2
1.768349215E2,2.038574219E-2,-9.338378906E-3,-6.256103516E-3
1.769351107E2,1.506042480E-2,6.652832031E-3,-6.256103516E-3
1.770352999E2,-1.263427734E-2,-2.743530273E-2,-1.690673828E-2
1.771355196E2,-2.221679688E-2,1.091003418E-2,-1.370239258E-2
1.772357088E2,9.735107422E-3,-7.202148438E-3,-1.998901367E-3
1.773359591E2,9.735107422E-3,1.409912109E-2,1.373291016E-4
1.774361483E2,-1.477050781E-2,1.327514648E-3,-5.187988281E-3
1.775363375E2,3.341674805E-3,2.593994141E-4,-1.264953613E-2
1.776365267E2,1.292419434E-2,-2.850341797E-2,-7.324218750E-3
1.777367464E2,2.252197266E-2,-4.013061523E-3,3.341674805E-3
1.778369661E2,-8.377075195E-3,6.652832031E-3,-3.051757812E-3
1.779371553E2,2.273559570E-3,-1.359558105E-2,-8.377075195E-3
1.780373751E2,-1.370239258E-2,-2.944946289E-3,-9.307861328E-4
1.781375643E2,2.571105957E-2,1.837158203E-2,1.078796387E-2
1.782377840E2,4.409790039E-3,2.593994141E-4,8.666992188E-3
1.783379732E2,-5.172729492E-3,3.434753418E-2,1.718139648E-2
1.784381929E2,-2.861022949E-2,-6.134033203E-3,-9.307861328E-4
1.785383821E2,6.546020508E-3,-2.944946289E-3,2.273559570E-3
1.786386019E2,-3.181457520E-2,3.434753418E-2,-3.051757812E-3
1.787388216E2,-8.377075195E-3,8.773803711E-3,-3.051757812E-3
1.788390413E2,2.359008789E-2,-8.270263672E-3,7.598876953E-3
1.789392305E2,2.677917480E-2,-1.678466797E-2,-6.256103516E-3
1.790394197E2,1.525878906E-4,-9.338378906E-3,-9.445190430E-3
1.791396395E2,-1.902770996E-2,-2.944946289E-3,-7.324218750E-3
1.792398287E2,-9.155273438E-4,-9.338378906E-3,1.373291016E-4
1.793400484E2,1.080322266E-2,-1.785278320E-2,4.394531250E-3
1.794402681E2,-3.051757812E-3,1.837158203E-2,5.462646484E-3
1.795404573E2,-1.983642578E-3,2.262878418E-2,6.530761719E-3
1.796406771E2,-1.902770996E-2,2.262878418E-2,-1.998901367E-3
1.797408663E2,1.525878906E-4,-5.065917969E-3,-1.998901367E-3
1.798410860E2,1.506042480E-2,-1.039123535E-2,4.394531250E-3
1.799412752E2,2.464294434E-2,-4.013061523E-3,3.341674805E-3
1.800414949E2,-7.308959961E-3,1.304626465E-2,4.394531250E-3
1.801416841E2,-1.689147949E-2,2.156066895E-2,-9.307861328E-4
1.802419039E2,-1.263427734E-2,7.705688477E-3,-4.119873047E-3
1.803421236E2,9.735107422E-3,-8.270263672E-3,-9.307861328E-4
1.804423128E2,2.038574219E-2,-4.013061523E-3,1.373291016E-4
1.805425325E2,5.477905273E-3,1.197814941E-2,3.341674805E-3
1.806427217E2,-1.795959473E-2,1.327514648E-3,-5.187988281E-3
1.807429415E2,-2.009582520E-2,-7.202148438E-3,-7.324218750E-3
1.808431612E2,9.735107422E-3,-7.202148438E-3,-9.307861328E-4
1.809433504E2,1.931762695E-2,-1.359558105E-2,-5.187988281E-3
1.810435701E2,1.826477051E-2,1.197814941E-2,2.273559570E-3
1.811437593E2,7.598876953E-3,2.902221680E-2,1.205444336E-3
1.812439791E2,-1.902770996E-2,1.623535156E-2,-9.307861328E-4
1.813441683E2,-3.074645996E-2,9.841918945E-3,-6.256103516E-3
1.814443575E2,-1.263427734E-2,1.197814941E-2,-1.051330566E-2
1.815445772E2,7.598876953E-3,-2.944946289E-3,-3.051757812E-3
1.816447969E2,1.292419434E-2,-1.252746582E-2,2.273559570E-3
1.817450167E2,1.399230957E-2,6.652832031E-3,3.341674805E-3
1.818452364E2,-1.689147949E-2,2.593994141E-4,-4.119873047E-3
1.819454256E2,-6.240844727E-3,-7.202148438E-3,-5.187988281E-3
1.820456148E2,-1.370239258E-2,-1.039123535E-2,-1.264953613E-2
1.821458345E2,-3.051757812E-3,-1.876831055E-3,-3.051757812E-3
1.822460543E2,1.719665527E-2,-1.571655273E-2,1.205444336E-3
1.823462435E2,2.784729004E-2,2.593994141E-4,3.341674805E-3
1.824464327E2,5.477905273E-3,1.516723633E-2,4.394531250E-3
1.825466524E2,3.341674805E-3,2.369689941E-2,3.341674805E-3
1.826468721E2,-1.477050781E-2,6.652832031E-3,-3.051757812E-3
1.827470613E2,1.525878906E-4,6.652832031E-3,-3.051757812E-3
1.828472811E2,2.273559570E-3,1.197814941E-2,4.394531250E-3
1.829474703E2,8.666992188E-3,7.705688477E-3,6.530761719E-3
1.830476900E2,-4.119873047E-3,1.091003418E-2,8.666992188E-3
1.831478792E2,1.292419434E-2,-1.466369629E-2,9.719848633E-3
1.832480989E2,3.341674805E-3,-1.571655273E-2,2.273559570E-3
1.833483187E2,-1.983642578E-3,1.516723633E-2,5.462646484E-3
1.834485184E2,-1.795959473E-2,2.049255371E-2,4.394531250E-3
1.835487076E2,-2.009582520E-2,1.623535156E-2,1.373291016E-4
1.836489273E2,-7.308959961E-3,2.262878418E-2,-4.119873047E-3
1.837491470E2,1.292419434E-2,2.593994141E-4,-1.998901367E-3
1.838493668E2,1.220703125E-3,-4.013061523E-3,2.273559570E-3
1.839495560E2,4.409790039E-3,-8.087158203E-4,-3.051757812E-3
1.840497452E2,1.612854004E-2,-5.065917969E-3,1.205444336E-3
1.841499954E2,1.506042480E-2,-8.087158203E-4,1.373291016E-4
1.842502151E2,-3.051757812E-3,7.705688477E-3,1.205444336E-3
1.843503738E2,-4.119873047E-3,-4.013061523E-3,1.373291016E-4
1.844505936E2,-1.902770996E-2,4.516601562E-3,1.373291016E-4
1.845507828E2,-3.051757812E-3,6.652832031E-3,1.373291016E-4
1.846510025E2,-1.795959473E-2,1.516723633E-2,-4.119873047E-3
1.847511917E2,-4.119873047E-3,1.327514648E-3,-5.187988281E-3
1.848514114E2,-2.009582520E-2,1.327514648E-3,-7.324218750E-3
1.849516006E2,-1.689147949E-2,3.009033203E-2,-1.998901367E-3
1.850518204E2,-5.172729492E-3,2.380371094E-3,-3.051757812E-3
1.851520096E2,4.409790039E-3,-9.338378906E-3,-9.307861328E-4
1.852522293E2,1.826477051E-2,-8.270263672E-3,-3.051757812E-3
1.853524490E2,1.080322266E-2,-1.998901367E-2,2.273559570E-3
1.854526382E2,9.735107422E-3,-4.013061523E-3,1.373291016E-4
1.855528580E2,7.598876953E-3,4.516601562E-3,1.373291016E-4
1.856530472E2,1.187133789E-2,2.380371094E-3,3.341674805E-3
1.857532669E2,1.719665527E-2,-1.571655273E-2,1.205444336E-3
1.858534866E2,9.735107422E-3,5.584716797E-3,2.273559570E-3
1.859536758E2,7.598876953E-3,-5.065917969E-3,-9.307861328E-4
1.860538956E2,-4.119873047E-3,-8.087158203E-4,7.598876953E-3
1.861540848E2,-9.155273438E-4,6.652832031E-3,3.341674805E-3
1.862543045E2,-3.051757812E-3,7.705688477E-3,1.373291016E-4
1.863544937E2,-6.240844727E-3,2.049255371E-2,-3.051757812E-3
1.864547134E2,-6.240844727E-3,2.474975586E-2,-9.307861328E-4
1.865549026E2,-8.377075195E-3,2.581787109E-2,-9.307861328E-4
1.866551224E2,-6.240844727E-3,3.448486328E-3,-1.998901367E-3
1.867553116E2,-6.240844727E-3,-1.876831055E-3,-3.051757812E-3
1.868555618E2,-7.308959961E-3,9.841918945E-3,-3.051757812E-3
1.869557510E2,-9.445190430E-3,1.304626465E-2,-4.119873047E-3
1.870559402E2,-8.377075195E-3,6.652832031E-3,-6.256103516E-3
1.871561600E2,-2.009582520E-2,1.942443848E-2,-4.119873047E-3
1.872563492E2,-2.009582520E-2,1.197814941E-2,1.373291016E-4
1.873565689E2,-1.583862305E-2,1.837158203E-2,-9.307861328E-4
1.874567581E2,-1.156616211E-2,6.652832031E-3,-5.187988281E-3
1.875569778E2,-1.902770996E-2,3.448486328E-3,-3.051757812E-3
1.876571671E2,-1.689147949E-2,8.773803711E-3,-6.256103516E-3
1.877573868E2,-1.689147949E-2,1.730346680E-2,-4.119873047E-3
1.878576065E2,-1.370239258E-2,6.652832031E-3,-7.324218750E-3
1.879577957E2,-2.009582520E-2,6.652832031E-3,-6.256103516E-3
1.880580154E2,-1.156616211E-2,9.841918945E-3,-5.187988281E-3
1.881582047E2,-1.583862305E-2,6.652832031E-3,-1.264953613E-2
1.882584244E2,-7.308959961E-3,8.773803711E-3,-1.158142090E-2
1.883586441E2,-4.119873047E-3,2.049255371E-2,-7.324218750E-3
1.884588333E2,-1.049804688E-2,2.049255371E-2,-6.256103516E-3
1.885590530E2,9.735107422E-3,2.049255371E-2,-1.158142090E-2
1.886592422E2,-9.445190430E-3,2.795410156E-2,-8.377075195E-3
1.887594620E2,2.273559570E-3,-1.876831055E-3,-4.119873047E-3
1.888596512E2,1.220703125E-3,2.593994141E-4,-1.264953613E-2
1.889598709E2,2.273559570E-3,6.652832031E-3,-1.158142090E-2
1.890600601E2,3.341674805E-3,9.841918945E-3,-1.051330566E-2
1.891602798E2,2.464294434E-2,9.841918945E-3,-8.377075195E-3
1.892604691E2,2.891540527E-2,1.091003418E-2,-1.158142090E-2
1.893606888E2,1.612854004E-2,2.380371094E-3,-8.377075195E-3
1.894608780E2,4.409790039E-3,-5.065917969E-3,-1.370239258E-2
1.895610977E2,3.341674805E-3,-5.065917969E-3,-1.797485352E-2
1.896613174E2,-1.983642578E-3,-8.087158203E-4,-1.904296875E-2
1.897615067E2,2.273559570E-3,-2.210998535E-2,-1.370239258E-2
1.898617264E2,6.546020508E-3,1.327514648E-3,-1.583862305E-2
1.899619461E2,4.409790039E-3,2.380371094E-3,-1.797485352E-2
1.900621353E2,-6.240844727E-3,2.688598633E-2,-1.477050781E-2
1.901623245E2,5.477905273E-3,2.593994141E-4,-2.009582520E-2
1.902625442E2,-1.049804688E-2,5.584716797E-3,-2.330017090E-2
1.903627335E2,-1.689147949E-2,-5.065917969E-3,-2.009582520E-2
1.904629532E2,8.666992188E-3,5.584716797E-3,-2.436828613E-2
1.905631729E2,-1.156616211E-2,1.730346680E-2,-2.648925781E-2
1.906633621E2,-6.240844727E-3,1.516723633E-2,-2.862548828E-2
1.907635818E2,-5.172729492E-3,4.516601562E-3,-3.288269043E-2
1.908637711E2,-1.370239258E-2,-8.087158203E-4,-3.288269043E-2
1.909639908E2,6.546020508E-3,-8.087158203E-4,-2.862548828E-2
1.910642105E2,-1.370239258E-2,-8.087158203E-4,-3.181457520E-2
1.911643997E2,-5.172729492E-3,-7.202148438E-3,-2.969360352E-2
1.912646194E2,-8.377075195E-3,2.380371094E-3,-2.969360352E-2
1.913648087E2,-1.156616211E-2,6.652832031E-3,-2.755737305E-2
1.914650284E2,-6.240844727E-3,1.327514648E-3,-2.862548828E-2
1.915652176E2,-7.308959961E-3,-4.013061523E-3,-3.074645996E-2
1.916654373E2,8.666992188E-3,-2.944946289E-3,-2.862548828E-2
1.917656570E2,1.220703125E-3,-8.087158203E-4,-2.648925781E-2
1.918658463E2,4.409790039E-3,-5.065917969E-3,-2.969360352E-2
1.919660660E2,8.666992188E-3,-2.944946289E-3,-2.648925781E-2
1.920662552E2,-7.308959961E-3,1.837158203E-2,-2.755737305E-2
1.921664749E2,2.273559570E-3,1.730346680E-2,-2.862548828E-2
1.922666641E2,-3.051757812E-3,9.841918945E-3,-3.181457520E-2
1.923668838E2,1.525878906E-4,6.652832031E-3,-3.608703613E-2
1.924671036E2,1.525878906E-4,2.593994141E-4,-3.181457520E-2
1.925672928E2,1.399230957E-2,-1.252746582E-2,-2.330017090E-2
1.926675125E2,1.525878906E-4,-4.013061523E-3,-1.690673828E-2
1.927677017E2,2.273559570E-3,-1.876831055E-3,-2.330017090E-2
1.928679214E2,-8.377075195E-3,2.593994141E-4,-2.009582520E-2
1.929681412E2,-8.377075195E-3,-1.876831055E-3,-2.223205566E-2
1.930683304E2,-1.263427734E-2,1.091003418E-2,-3.181457520E-2
1.931685196E2,3.341674805E-3,1.327514648E-3,-2.862548828E-2
1.932687698E2,8.666992188E-3,2.380371094E-3,-3.074645996E-2
1.933689896E2,1.525878906E-4,4.516601562E-3,-2.542114258E-2
1.934691496E2,-1.983642578E-3,2.593994141E-4,-2.969360352E-2
1.935693693E2,-8.377075195E-3,-5.065917969E-3,-2.969360352E-2
1.936695585E2,6.546020508E-3,-8.087158203E-4,-3.074645996E-2
1.937697477E2,8.666992188E-3,6.652832031E-3,-2.436828613E-2
1.938699369E2,1.080322266E-2,9.841918945E-3,-2.648925781E-2
1.939701567E2,1.399230957E-2,2.593994141E-4,-2.969360352E-2
1.940703459E2,-9.445190430E-3,-6.134033203E-3,-2.969360352E-2
1.941705656E2,2.273559570E-3,-6.134033203E-3,-3.074645996E-2
1.942707548E2,-1.156616211E-2,1.730346680E-2,-2.542114258E-2
1.943709745E2,-1.983642578E-3,4.516601562E-3,-3.074645996E-2
1.944711637E2,-8.377075195E-3,-4.013061523E-3,-2.542114258E-2
1.945713835E2,3.341674805E-3,-8.087158203E-4,-2.648925781E-2
1.946716032E2,-1.983642578E-3,-2.944946289E-3,-2.542114258E-2
1.947717924E2,-9.155273438E-4,2.593994141E-4,-2.648925781E-2
1.948720121E2,1.525878906E-4,2.593994141E-4,-2.009582520E-2
1.949722319E2,8.666992188E-3,-1.359558105E-2,-2.436828613E-2
1.950724211E2,5.477905273E-3,-1.571655273E-2,-2.648925781E-2
1.951726408E2,3.341674805E-3,-4.013061523E-3,-2.542114258E-2
1.952728300E2,1.525878906E-4,1.623535156E-2,-2.223205566E-2
1.953730192E2,-1.983642578E-3,1.304626465E-2,-2.009582520E-2
1.954732389E2,3.341674805E-3,1.197814941E-2,-1.797485352E-2
1.955734587E2,1.080322266E-2,2.380371094E-3,-1.583862305E-2
1.956736479E2,4.409790039E-3,-1.678466797E-2,-2.009582520E-2
1.957738676E2,-4.119873047E-3,-1.039123535E-2,-2.542114258E-2
1.958740873E2,-1.263427734E-2,2.593994141E-4,-1.797485352E-2
1.959742765E2,1.525878906E-4,-8.087158203E-4,-2.009582520E-2
1.960744963E2,2.273559570E-3,-6.134033203E-3,-1.690673828E-2
1.961746855E2,-9.155273438E-4,-8.270263672E-3,-2.223205566E-2
1.962749052E2,-9.445190430E-3,-9.338378906E-3,-2.755737305E-2
1.963750944E2,-6.240844727E-3,-8.087158203E-4,-2.862548828E-2
1.964753141E2,3.341674805E-3,-2.944946289E-3,-2.969360352E-2
1.965755033E2,1.525878906E-4,3.448486328E-3,-2.969360352E-2
1.966757231E2,4.409790039E-3,2.380371094E-3,-2.969360352E-2
1.967759428E2,-3.051757812E-3,2.049255371E-2,-3.288269043E-2
1.968761320E2,-8.377075195E-3,2.049255371E-2,-2.648925781E-2
1.969763517E2,-4.119873047E-3,-6.134033203E-3,-2.862548828E-2
1.970765409E2,-1.156616211E-2,-1.892089844E-2,-2.969360352E-2
1.971767607E2,1.220703125E-3,-5.065917969E-3,-2.969360352E-2
1.972769499E2,-1.983642578E-3,-1.039123535E-2,-2.755737305E-2
1.973771696E2,-4.119873047E-3,-2.944946289E-3,-2.648925781E-2
1.974773893E2,3.341674805E-3,1.197814941E-2,-2.436828613E-2
1.975775785E2,6.546020508E-3,-1.145935059E-2,-2.330017090E-2
1.976777983E2,1.506042480E-2,-2.850341797E-2,-2.116394043E-2
1.977779875E2,8.666992188E-3,-1.892089844E-2,-2.330017090E-2
1.978782072E2,7.598876953E-3,8.773803711E-3,-2.009582520E-2
1.979784269E2,-1.983642578E-3,2.688598633E-2,-1.690673828E-2
1.980786161E2,-1.263427734E-2,1.516723633E-2,-1.797485352E-2
1.981788053E2,-2.648925781E-2,4.516601562E-3,-1.264953613E-2
1.982790251E2,-2.009582520E-2,-7.202148438E-3,-1.797485352E-2
1.983792448E2,-1.049804688E-2,-1.359558105E-2,-1.158142090E-2
1.984794340E2,-2.861022949E-2,-2.957153320E-2,-1.264953613E-2
