"Time (s)","Acceleration x (m/s^2)","Acceleration y (m/s^2)","Acceleration z (m/s^2)"
1.506295000E-1,6.472015381E-1,3.608245850E-1,8.518676758E0
2.509102620E-1,9.392852783E-1,1.884460449E-1,9.418899536E0
3.511299880E-1,1.568969727E0,2.123870850E-1,9.773239136E0
4.513802320E-1,1.042236328E0,-2.464294434E-2,1.012518311E1
5.515999590E-1,9.464721680E-1,3.464508057E-1,9.354248047E0
6.518196850E-1,8.866119385E-1,1.884460449E-1,8.592895508E0
7.520699300E-1,1.717407227E0,1.812591553E-1,1.018983459E1
8.523201740E-1,9.177398682E-1,-4.139709473E-2,1.004377747E1
9.525564610E-1,7.525482178E-1,3.057556152E-1,9.033432007E0
1.052776188E0,1.008728027E0,1.501312256E-1,9.485931396E0
1.153026432E0,1.523468018E0,2.578735352E-1,9.241729736E0
1.253276676E0,9.680175781E-1,7.591247559E-2,1.029039001E1
1.353526920E0,9.704132080E-1,1.908416748E-1,9.500305176E0
1.453777164E0,1.185897827E0,2.650604248E-1,8.779647827E0
1.553996891E0,1.387008667E0,1.381683350E-1,9.617614746E0
1.654247135E0,1.063781738E0,-1.874542236E-1,1.008927917E1
1.754466862E0,7.501525879E-1,3.560333252E-1,9.847457886E0
1.854686588E0,1.104492188E0,1.549224854E-1,9.153137207E0
1.954936832E0,1.422912598E0,1.453399658E-1,9.560150146E0
2.055156559E0,1.082946777E0,2.435150146E-1,1.022096252E1
2.155406803E0,6.352233887E-1,1.908416748E-1,9.098068237E0
2.255626530E0,1.013504028E0,1.860504150E-1,9.414108276E0
2.355876774E0,1.667129517E0,1.980133057E-1,9.603256226E0
2.456127018E0,1.047027588E0,-6.294250488E-2,9.768447876E0
2.556346744E0,8.028259277E-1,3.704071045E-1,9.600860596E0
2.656596989E0,9.512634277E-1,4.613800049E-1,8.889785767E0
2.756816715E0,1.655151367E0,-5.097961426E-2,1.007969666E1
2.857066959E0,7.405700684E-1,2.722320557E-1,9.878585815E0
2.957317203E0,9.464721680E-1,6.632995605E-2,9.457199097E0
3.057536930E0,1.030273438E0,2.363281250E-1,9.500305176E0
3.157787174E0,1.343917847E0,2.578735352E-1,9.035827637E0
3.258037418E0,1.059005737E0,1.118316650E-1,1.011322021E1
3.358257145E0,6.687469482E-1,2.291412354E-1,9.552978516E0
3.458507389E0,1.341522217E0,2.219543457E-1,8.863449097E0
3.558727116E0,1.389404297E0,3.129425049E-1,9.536209106E0
3.658977360E0,9.608306885E-1,1.166076660E-1,8.568954468E0
3.759197086E0,1.114074707E0,1.213989258E-1,9.026245117E0
3.859447330E0,1.274475098E0,1.788635254E-1,9.435653687E0
3.959697575E0,9.081726074E-1,7.112121582E-2,1.004139709E1
4.059917301E0,1.085342407E0,1.669006348E-1,9.564941406E0
4.160167545E0,1.097305298E0,3.320922852E-1,9.562545776E0
4.260387272E0,1.377426147E0,2.435150146E-1,9.452423096E0
4.360637516E0,1.080551147E0,2.435150146E-1,9.215393066E0
4.460857243E0,1.128433228E0,1.357727051E-1,9.799575806E0
4.561107487E0,1.075759888E0,1.980133057E-1,9.488327026E0
4.661357731E0,1.047027588E0,8.789062500E-2,9.160324097E0
4.761607975E0,1.157165527E0,2.554779053E-1,9.778030396E0
4.861827702E0,1.157165527E0,2.458953857E-1,9.356643677E0
4.962077946E0,8.674621582E-1,2.411193848E-1,9.224975586E0
5.062297672E0,1.260116577E0,2.219543457E-1,9.054977417E0
5.162547916E0,9.728088379E-1,2.052001953E-1,9.995895386E0
5.262767643E0,1.152374268E0,2.722320557E-1,9.732543945E0
5.363017887E0,5.155181885E-1,2.171783447E-1,9.064559937E0
5.463268131E0,1.243347168E0,2.339324951E-1,9.586486816E0
5.563487858E0,1.547424316E0,2.315368652E-1,9.529037476E0
5.663738102E0,9.919586182E-1,-5.097961426E-2,9.684661865E0
5.763957828E0,9.680175781E-1,3.608245850E-1,9.610427856E0
5.864208073E0,8.147888184E-1,2.482910156E-1,9.098068237E0
5.964427799E0,1.475585938E0,9.028625488E-2,9.569732666E0
6.064678043E0,1.202651978E0,2.363281250E-1,1.032391357E1
6.164928287E0,5.753784180E-1,2.411193848E-1,8.755706787E0
6.265148014E0,1.248138428E0,2.722320557E-1,9.301589966E0
6.365398258E0,1.604873657E0,1.237945557E-1,1.000547791E1
6.465648502E0,8.914031982E-1,6.155395508E-2,9.622406006E0
6.565868229E0,6.495971680E-1,3.991241455E-1,9.375808716E0
6.666118473E0,1.410949707E0,1.692810059E-1,8.851470947E0
6.766338200E0,1.305603027E0,-6.056213379E-2,1.070219421E1
6.866588444E0,9.033813477E-1,2.794189453E-1,9.442840576E0
6.966808170E0,6.735382080E-1,1.429443359E-1,8.954421997E0
7.067058414E0,1.703033447E0,2.123870850E-1,9.552978516E0
7.167308659E0,1.068572998E0,4.089355469E-3,9.907318115E0
7.267558903E0,1.013504028E0,2.363281250E-1,9.557754517E0
7.367778629E0,7.932434082E-1,2.554779053E-1,9.160324097E0
7.467998356E0,1.602478027E0,1.692810059E-1,9.411712646E0
7.568248600E0,1.243347168E0,3.999328613E-2,1.039094543E1
7.668468327E0,7.118377686E-1,3.368835449E-1,9.009490967E0
7.768718571E0,8.363342285E-1,1.932220459E-1,9.409317017E0
7.868968815E0,1.624038696E0,2.219543457E-1,9.428482056E0
7.969188541E0,1.099700928E0,4.957580566E-2,1.022334290E1
8.069438786E0,8.507080078E-1,2.387237549E-1,9.165115356E0
8.169658512E0,9.321136475E-1,2.602691650E-1,8.777252197E0
8.269908756E0,1.724594116E0,6.872558594E-2,1.025686646E1
8.370189518E0,9.345092773E-1,6.632995605E-2,9.837890625E0
8.470378727E0,7.549438477E-1,3.201293945E-1,8.987945557E0
8.570628971E0,1.118850708E0,1.908416748E-1,9.600860596E0
8.670879215E0,1.487564087E0,1.070404053E-1,9.598464966E0
8.771098942E0,1.080551147E0,1.932220459E-1,1.011801147E1
8.871349186E0,6.567687988E-1,2.291412354E-1,9.117233276E0
8.971568912E0,1.260116577E0,2.674560547E-1,9.126800537E0
9.071849674E0,1.552200317E0,1.669006348E-1,1.009407043E1
9.172069401E0,9.464721680E-1,3.042602539E-2,9.713378906E0
9.272289127E0,6.974792480E-1,3.823699951E-1,9.517059326E0
9.372539371E0,1.394195557E0,1.860504150E-1,8.947235107E0
9.472759098E0,1.176315308E0,5.915832520E-2,1.011322021E1
9.573009342E0,9.632263184E-1,2.482910156E-1,9.962387085E0
9.673259586E0,7.333831787E-1,2.291412354E-1,9.076522827E0
9.773479313E0,5.777587891E-1,1.205978394E0,8.248138428E0
9.873729557E0,9.536590576E-1,-2.185668945E-1,8.367843628E0
9.973949284E0,1.090118408E0,1.453399658E-1,1.018504333E1
1.007419953E1,7.286071777E-1,1.429443359E-1,9.189056396E0
1.017444977E1,1.712615967E0,3.775787354E-1,9.186660767E0
1.027466950E1,1.128433228E0,-1.156158447E-1,1.005815125E1
1.037491974E1,6.974792480E-1,2.554779053E-1,9.476364136E0
1.047516999E1,8.267669678E-1,7.351684570E-2,9.579315186E0
1.057538971E1,1.506713867E0,4.374389648E-1,9.263275146E0
1.067563996E1,1.317581177E0,2.803039551E-2,9.746902466E0
1.077589020E1,8.770446777E-1,-1.251983643E-1,9.620010376E0
1.087610993E1,8.914031982E-1,2.794189453E-1,9.938446045E0
1.097626666E1,1.228988647E0,2.052001953E-1,9.940841675E0
1.107651691E1,1.171524048E0,1.367187500E-2,9.715774536E0
1.117676715E1,9.368896484E-1,1.621093750E-1,9.442840576E0
1.127698688E1,1.169128418E0,-2.224731445E-2,9.490722656E0
1.137723712E1,9.943542480E-1,1.812591553E-1,9.435653687E0
1.147748737E1,1.140396118E0,2.315368652E-1,9.576919556E0
1.157773761E1,1.145187378E0,2.578735352E-1,9.749298096E0
1.167795734E1,1.274475098E0,1.597137451E-1,9.651138306E0
1.177817706E1,1.219406128E0,6.155395508E-2,9.354248047E0
1.187842731E1,1.825149536E0,-2.975769043E-1,9.162719727E0
1.197864703E1,9.488677979E-1,3.488464355E-1,9.014282227E0
1.207889728E1,1.671920776E0,1.309814453E-1,9.402145386E0
1.217914752E1,8.626708984E-1,5.676269531E-2,1.046037292E1
1.227936725E1,6.232604980E-1,2.219543457E-1,8.899353027E0
1.237961749E1,1.315185547E0,2.363281250E-1,9.253692627E0
1.247983722E1,1.406158447E0,2.339324951E-1,9.871398926E0
1.258008746E1,1.023086548E0,-7.888793945E-3,9.926467896E0
1.268033771E1,8.387298584E-1,3.871612549E-1,8.664718628E0
1.278055743E1,1.382217407E0,-1.028442383E-2,1.022096252E1
1.288080768E1,4.173583984E-1,5.595397949E-1,1.027601624E1
1.298102740E1,1.468414307E0,-3.900146484E-2,8.925689697E0
1.308127765E1,1.444473267E0,2.818145752E-1,9.744506836E0
1.318152789E1,8.147888184E-1,-7.888793945E-3,1.015631104E1
1.328174762E1,1.147583008E0,1.932220459E-1,9.031036377E0
1.338199786E1,9.009857178E-1,2.171783447E-1,9.351867676E0
1.348224811E1,1.353485107E0,1.669006348E-1,9.828308105E0
1.358249835E1,1.140396118E0,-7.019042969E-4,9.813934326E0
1.368274860E1,7.405700684E-1,1.597137451E-1,8.983154297E0
1.378293781E1,1.415740967E0,4.398345947E-1,9.430862427E0
1.388318805E1,1.298416138E0,1.844787598E-2,9.928863525E0
1.398340778E1,8.195800781E-1,1.118316650E-1,9.655929565E0
1.408365802E1,9.345092773E-1,1.525268555E-1,9.086105347E0
1.418390826E1,1.501922607E0,2.985687256E-1,9.368621826E0
1.428415851E1,9.177398682E-1,1.605224609E-2,1.026884460E1
1.438437824E1,1.087738037E0,6.872558594E-2,9.445236206E0
1.448462848E1,9.009857178E-1,2.028045654E-1,9.100463867E0
1.458484821E1,1.554595947E0,1.788635254E-1,9.655929565E0
1.468509845E1,1.104492188E0,-2.703857422E-2,1.025926208E1
1.478534869E1,7.740936279E-1,3.225097656E-1,8.655151367E0
1.488556842E1,1.427703857E0,1.788635254E-1,9.615219116E0
1.498581867E1,1.104492188E0,-7.971191406E-2,1.022573853E1
1.508603839E1,9.273223877E-1,1.764678955E-1,9.141174316E0
1.518628864E1,1.193069458E0,4.015197754E-1,9.050186157E0
1.528653888E1,1.523468018E0,1.429443359E-1,9.557754517E0
1.538675861E1,1.039840698E0,5.197143555E-2,1.013955688E1
1.548700885E1,8.531036377E-1,1.453399658E-1,9.153137207E0
1.558725909E1,1.370239258E0,3.129425049E-1,9.186660767E0
1.568747882E1,1.166732788E0,6.394958496E-2,1.022573853E1
1.578772906E1,9.345092773E-1,6.872558594E-2,9.672683716E0
1.588797931E1,8.291625977E-1,7.351684570E-2,9.050186157E0
1.598819904E1,1.370239258E0,5.355987549E-1,9.289611816E0
1.608844928E1,1.377426147E0,-7.731628418E-2,9.861831665E0
1.618866901E1,9.225311279E-1,1.812591553E-1,9.804367065E0
1.628891925E1,7.932434082E-1,1.621093750E-1,8.944839478E0
1.638913898E1,1.743743896E0,3.680114746E-1,9.421295166E0
1.648938922E1,9.871673584E-1,1.693725586E-3,1.004856873E1
1.658963946E1,8.602752686E-1,3.761291504E-2,9.641555786E0
1.668985919E1,8.914031982E-1,9.266662598E-2,9.339889526E0
1.679010944E1,1.418136597E0,5.116577148E-1,9.157928467E0
1.689032916E1,1.264907837E0,-1.778717041E-1,1.023052979E1
1.699057941E1,8.267669678E-1,1.836547852E-1,9.591278076E0
1.709082965E1,6.831054688E-1,1.309814453E-1,9.138778687E0
1.719104938E1,1.703033447E0,2.746276855E-1,9.849853516E0
1.729129962E1,1.118850708E0,6.632995605E-2,9.730148315E0
1.739154987E1,1.042236328E0,5.915832520E-2,9.612823486E0
1.749176959E1,7.645111084E-1,1.237945557E-1,9.035827637E0
1.759201984E1,1.492355347E0,3.177337646E-1,9.567337036E0
1.769223956E1,1.126037598E0,-1.946258545E-1,1.025686646E1
1.779248981E1,7.405700684E-1,2.554779053E-1,9.366226196E0
1.789274005E1,9.392852783E-1,1.405639648E-1,9.284820557E0
1.799299030E1,1.726989746E0,3.273010254E-1,9.473968506E0
1.809321002E1,1.080551147E0,9.506225586E-2,9.909713745E0
1.819342975E1,1.020690918E0,1.692810059E-1,9.220184326E0
1.829367999E1,1.049423218E0,1.812591553E-1,9.009490967E0
1.839389972E1,1.537841797E0,4.398345947E-1,9.780426025E0
1.849414996E1,1.224197388E0,-1.994171143E-1,9.878585815E0
1.859440021E1,9.033813477E-1,2.554779053E-1,9.232147217E0
1.869461993E1,8.602752686E-1,1.477355957E-1,9.409317017E0
1.879487018E1,1.782043457E0,2.482910156E-1,9.404525757E0
1.889508991E1,1.133224487E0,1.046447754E-1,1.024967957E1
1.899534015E1,7.884521484E-1,1.860504150E-1,8.748519897E0
1.909559039E1,1.365463257E0,2.123870850E-1,9.397354126E0
1.919581012E1,1.487564087E0,3.392791748E-1,9.957595825E0
1.929606036E1,1.085342407E0,-1.036529541E-1,9.665496826E0
1.939631061E1,8.650665283E-1,2.602691650E-1,9.112442017E0
1.949653034E1,8.866119385E-1,1.884460449E-1,9.414108276E0
1.959678058E1,1.760498047E0,2.099914551E-1,9.797180176E0
1.969703082E1,9.728088379E-1,-7.888793945E-3,9.959991455E0
1.979725055E1,9.081726074E-1,2.052001953E-1,9.047790527E0
1.989750079E1,9.297180176E-1,9.028625488E-2,9.287216187E0
1.999772052E1,1.554595947E0,5.140533447E-1,9.689437866E0
2.009797076E1,1.372634888E0,-1.635131836E-1,9.981536865E0
2.019822101E1,8.267669678E-1,3.033599854E-1,9.189056396E0
2.029844074E1,7.956390381E-1,6.632995605E-2,9.174682617E0
2.039869098E1,1.805984497E0,2.578735352E-1,9.818725586E0
2.049894122E1,9.847869873E-1,-1.266479492E-2,1.017785645E1
2.059916095E1,8.387298584E-1,1.597137451E-1,8.920898438E0
2.069941119E1,1.025482178E0,9.028625488E-2,9.320739746E0
2.079963092E1,1.676712036E0,4.733581543E-1,9.912109375E0
2.089988116E1,1.252929688E0,-1.228027344E-1,9.754089355E0
2.100017383E1,7.357788086E-1,3.416748047E-1,9.162719727E0
2.110039356E1,8.339385986E-1,1.046447754E-1,9.155532837E0
2.120064380E1,1.834716797E0,2.578735352E-1,9.981536865E0
2.130086353E1,8.937988281E-1,3.761291504E-2,1.000308228E1
2.140111378E1,8.794403076E-1,2.147827148E-1,8.853866577E0
2.150136402E1,1.018295288E0,5.436706543E-2,9.447631836E0
2.160158375E1,1.523468018E0,4.517974854E-1,9.967163086E0
2.170183399E1,1.176315308E0,-1.275939941E-1,9.974349976E0
2.180208423E1,7.884521484E-1,3.033599854E-1,8.985549927E0
2.190230396E1,9.536590576E-1,1.692810059E-1,9.361434937E0
2.200255421E1,1.839508057E0,2.004089355E-1,1.007490540E1
2.210277393E1,8.890075684E-1,-1.745605469E-2,9.866607666E0
2.220302418E1,9.584503174E-1,2.004089355E-1,9.019073486E0
2.230327442E1,9.967498779E-1,1.070404053E-1,9.287216187E0
2.240349415E1,1.643188477E0,2.961730957E-1,1.009884644E1
2.250374439E1,1.044631958E0,-1.347808838E-1,9.799575806E0
2.260396412E1,6.184692383E-1,2.937927246E-1,8.798797607E0
2.270424488E1,1.102096558E0,3.081512451E-1,9.591278076E0
2.280446460E1,1.868240356E0,1.549224854E-1,9.948013306E0
2.290471485E1,7.118377686E-1,-1.745605469E-2,9.849853516E0
2.300493458E1,7.549438477E-1,2.794189453E-1,9.054977417E0
2.310515430E1,1.173919678E0,9.266662598E-2,9.406921387E0
2.320540455E1,1.533050537E0,2.794189453E-1,1.023052979E1
2.330562427E1,9.632263184E-1,-5.097961426E-2,9.684661865E0
2.340590504E1,8.123931885E-1,2.147827148E-1,8.870620728E0
2.350612476E1,1.169128418E0,3.033599854E-1,9.610427856E0
2.360634449E1,1.753326416E0,1.357727051E-1,9.969558716E0
2.370659473E1,9.009857178E-1,6.872558594E-2,9.787612915E0
2.380684498E1,8.674621582E-1,1.788635254E-1,8.911331177E0
2.390706470E1,1.466018677E0,2.961730957E-1,9.423690796E0
2.400731495E1,1.422912598E0,2.004089355E-1,1.021377563E1
2.410756519E1,8.961944580E-1,5.436706543E-2,9.323135376E0
2.420778492E1,8.483123779E-1,1.645050049E-1,8.952026367E0
2.430803516E1,1.264907837E0,5.355987549E-1,9.756484985E0
2.440825489E1,1.339126587E0,-7.012939453E-2,1.024490356E1
2.450850513E1,8.243713379E-1,2.219543457E-1,9.251296997E0
2.460875538E1,8.028259277E-1,2.028045654E-1,8.980758667E0
2.470897510E1,1.868240356E0,2.626647949E-1,1.013237000E1
2.480922535E1,9.728088379E-1,-3.182983398E-2,9.835494995E0
2.490947559E1,8.937988281E-1,2.004089355E-1,9.083709717E0
2.500969532E1,9.464721680E-1,8.070373535E-2,9.301589966E0
2.510994556E1,1.533050537E0,4.182891846E-1,9.801971436E0
2.521016529E1,1.250534058E0,-1.443481445E-1,1.007250977E1
2.531041553E1,8.123931885E-1,2.794189453E-1,9.083709717E0
2.541066578E1,8.076019287E-1,1.166076660E-1,9.292007446E0
2.551091602E1,1.779647827E0,3.392791748E-1,9.902526855E0
2.561113575E1,1.130828857E0,3.521728516E-2,9.866607666E0
2.571135547E1,9.081726074E-1,1.477355957E-1,9.205810547E0
2.581160572E1,7.286071777E-1,1.213989258E-1,9.129196167E0
2.591182544E1,1.614456177E0,4.278564453E-1,9.849853516E0
2.601210621E1,1.195465088E0,-2.089996338E-1,1.003181458E1
2.611232593E1,7.597198486E-1,3.201293945E-1,8.995117188E0
2.621257618E1,8.171844482E-1,1.237945557E-1,9.397354126E0
2.631279590E1,1.865844727E0,3.440704346E-1,9.699020386E0
2.641304615E1,1.133224487E0,3.999328613E-2,9.952804565E0
2.651326588E1,9.129486084E-1,2.602691650E-1,9.131591797E0
2.661351612E1,8.459167480E-1,7.112121582E-2,9.157928467E0
2.671376636E1,1.698257446E0,4.494018555E-1,1.005575562E1
2.681398609E1,1.114074707E0,-1.922302246E-1,9.816329956E0
2.691423633E1,8.650665283E-1,3.201293945E-1,9.007095337E0
2.701445606E1,8.195800781E-1,6.394958496E-2,9.387771606E0
2.711470630E1,1.779647827E0,2.961730957E-1,9.828308105E0
2.721495655E1,1.027877808E0,-4.139709473E-2,1.013237000E1
2.731517628E1,8.937988281E-1,2.363281250E-1,8.930480957E0
2.741542652E1,8.650665283E-1,5.197143555E-2,9.299194336E0
2.751567676E1,1.614456177E0,5.044708252E-1,9.981536865E0
2.761589649E1,1.255325317E0,-2.281494141E-1,9.799575806E0
2.771614673E1,7.812805176E-1,3.033599854E-1,9.035827637E0
2.781636646E1,8.243713379E-1,1.453399658E-1,9.224975586E0
2.791661671E1,1.794021606E0,2.770233154E-1,9.969558716E0
2.801686695E1,8.866119385E-1,8.880615234E-3,1.003900146E1
2.811708668E1,8.123931885E-1,2.794189453E-1,8.767669678E0
2.821733692E1,1.008728027E0,8.070373535E-2,9.588882446E0
2.831758716E1,1.655151367E0,4.613800049E-1,9.979141235E0
2.841780689E1,1.142791748E0,-1.443481445E-1,9.849853516E0
2.851805714E1,8.315582275E-1,3.608245850E-1,9.002304077E0
2.861827686E1,9.416809082E-1,1.453399658E-1,9.308761597E0
2.871852711E1,1.834716797E0,2.961730957E-1,1.002941895E1
2.881874683E1,8.770446777E-1,-1.745605469E-2,9.785217285E0
2.891899708E1,9.368896484E-1,2.746276855E-1,8.873016357E0
2.901924732E1,9.943542480E-1,8.309936523E-2,9.552978516E0
2.911946705E1,1.683883667E0,4.111022949E-1,9.904922485E0
2.921971729E1,1.121246338E0,-2.018127441E-1,9.871398926E0
2.931993702E1,7.190246582E-1,4.326477051E-1,8.772460938E0
2.942018726E1,1.011123657E0,2.123870850E-1,9.404525757E0
2.952043751E1,1.925704956E0,1.980133057E-1,1.010603333E1
2.962065723E1,7.597198486E-1,6.394958496E-2,9.667892456E0
2.972090748E1,9.201354980E-1,3.273010254E-1,8.940063477E0
2.982115772E1,1.169128418E0,8.070373535E-2,9.500305176E0
2.992137745E1,1.566574097E0,3.416748047E-1,1.011801147E1
3.002162769E1,9.704132080E-1,-1.108398438E-1,9.627197266E0
3.012184742E1,8.267669678E-1,3.368835449E-1,8.868225098E0
3.022209766E1,9.704132080E-1,1.740722656E-1,9.670288086E0
3.032234791E1,1.892181396E0,2.866058350E-1,9.854644775E0
3.042256763E1,8.818359375E-1,-2.703857422E-2,9.811553955E0
3.052281788E1,8.937988281E-1,3.009643555E-1,8.870620728E0
3.062306812E1,1.094909668E0,8.070373535E-2,9.416503906E0
3.072328785E1,1.583328247E0,3.105468750E-1,1.026405334E1
3.082353809E1,9.799957275E-1,-1.084442139E-1,9.505096436E0
3.092377874E1,7.357788086E-1,3.033599854E-1,8.925689697E0
3.102399846E1,1.068572998E0,2.554779053E-1,9.727752686E0
3.112424871E1,1.889785767E0,1.812591553E-1,9.904922485E0
3.122446843E1,7.333831787E-1,6.394958496E-2,9.754089355E0
3.132471868E1,8.315582275E-1,2.578735352E-1,8.916122437E0
3.142493841E1,1.401367188E0,1.980133057E-1,9.476364136E0
3.152518865E1,1.576141357E0,3.560333252E-1,1.007490540E1
3.162543889E1,9.273223877E-1,-2.066040039E-1,9.531433105E0
3.172565862E1,8.554992676E-1,2.890014648E-1,9.088500977E0
3.182590886E1,9.752044678E-1,1.884460449E-1,9.627197266E0
3.192612859E1,1.853881836E0,5.676269531E-2,1.008688354E1
3.202637883E1,7.908477783E-1,1.046447754E-1,9.646347046E0
3.212662908E1,7.453613281E-1,2.291412354E-1,8.817947388E0
3.222684880E1,1.341522217E0,1.692810059E-1,9.646347046E0
3.232709905E1,1.578536987E0,3.392791748E-1,9.988723755E0
3.242734929E1,1.118850708E0,-1.036529541E-1,9.694229126E0
3.252756902E1,8.195800781E-1,4.063110352E-1,9.098068237E0
3.262781926E1,1.126037598E0,3.081512451E-1,9.399749756E0
3.272803899E1,1.571365356E0,-1.108398438E-1,1.010603333E1
3.282828924E1,9.273223877E-1,8.070373535E-2,9.813934326E0
3.292853948E1,7.669067383E-1,2.770233154E-1,8.884994507E0
3.302878972E1,1.171524048E0,1.501312256E-1,9.840270996E0
3.312900945E1,1.595306396E0,3.727874756E-1,9.622406006E0
3.322925969E1,1.224197388E0,-4.196929932E-1,1.002941895E1
3.332947942E1,4.412994385E-1,-2.113952637E-1,9.409317017E0
3.342972966E1,1.343917847E0,2.563476562E-2,9.272857666E0
3.352997991E1,1.884994507E0,-1.745605469E-2,9.710998535E0
3.363019964E1,6.208648682E-1,3.999328613E-2,9.519454956E0
3.373044988E1,6.495971680E-1,-4.379272461E-2,9.404525757E0
3.383066961E1,1.822753906E0,4.182891846E-1,9.715774536E0
3.393091985E1,1.351089478E0,4.063110352E-1,8.961608887E0
3.403117009E1,1.288848877E0,8.540344238E-1,9.382980347E0
3.413138982E1,9.967498779E-1,1.021621704E0,9.816329956E0
3.423164006E1,1.228988647E0,1.399902344E0,9.811553955E0
3.433185979E1,9.752044678E-1,1.569900513E0,9.327911377E0
3.443211004E1,1.202651978E0,1.495681763E0,1.000068665E1
3.453232976E1,8.554992676E-1,1.636932373E0,9.023849487E0
3.463261052E1,1.068572998E0,1.459762573E0,1.034306335E1
3.473286077E1,1.284057617E0,1.522018433E0,9.667892456E0
3.483304998E1,1.025482178E0,1.296951294E0,9.758880615E0
3.493330022E1,7.573242188E-1,7.486877441E-1,9.100463867E0
3.503355047E1,1.178710938E0,5.116577148E-1,9.825912476E0
3.513377019E1,7.549438477E-1,6.146087646E-1,9.349472046E0
3.523402044E1,1.595306396E0,1.605224609E-2,1.008448792E1
3.533427068E1,9.416809082E-1,-2.224731445E-2,8.992736816E0
3.543449041E1,1.363067627E0,-1.132354736E-1,9.725357056E0
3.553474065E1,1.092514038E0,-4.220733643E-1,9.457199097E0
3.563496038E1,9.512634277E-1,-2.066040039E-1,9.165115356E0
3.573521062E1,1.044631958E0,7.351684570E-2,9.969558716E0
3.583543035E1,8.722534180E-1,1.549224854E-1,9.404525757E0
3.593568059E1,1.152374268E0,5.882720947E-1,9.507476807E0
3.603593084E1,8.890075684E-1,8.923339844E-1,9.308761597E0
3.613615056E1,8.267669678E-1,1.332870483E0,9.904922485E0
3.623640081E1,1.049423218E0,1.459762573E0,9.775634766E0
3.633665105E1,8.698577881E-1,1.723129272E0,9.459594727E0
3.643687078E1,8.578948975E-1,1.651290894E0,9.789993286E0
3.653712102E1,1.073364258E0,1.816497803E0,9.260879517E0
3.663734075E1,3.311614990E-1,1.478912354E0,9.857040405E0
3.673759099E1,1.262512207E0,1.292175293E0,1.000787354E1
3.683781072E1,1.779647827E0,1.191604614E0,8.904144287E0
3.693806096E1,9.752044678E-1,1.591445923E0,9.974349976E0
3.703834172E1,9.584503174E-1,1.126968384E0,9.421295166E0
3.713856145E1,1.485168457E0,1.150909424E0,9.210601807E0
3.723878118E1,9.033813477E-1,1.419067383E0,9.531433105E0
3.733903142E1,1.798812866E0,1.459762573E0,9.442840576E0
3.743925115E1,1.281661987E0,1.294555664E0,9.519454956E0
3.753950139E1,1.166732788E0,1.663269043E0,9.900131226E0
3.763975164E1,9.321136475E-1,1.505249023E0,9.438049316E0
3.774000188E1,1.382217407E0,1.071899414E0,9.696624756E0
3.784025212E1,8.387298584E-1,1.292175293E0,9.682266235E0
3.794050237E1,1.408554077E0,6.888275146E-1,1.014434814E1
3.804072210E1,1.195465088E0,7.175598145E-1,8.997512817E0
3.814097234E1,1.243347168E0,1.239501953E0,9.179473877E0
3.824119207E1,1.228988647E0,9.593811035E-1,9.641555786E0
3.834144231E1,1.731765747E0,6.672821045E-1,9.608047485E0
3.844169256E1,1.049423218E0,6.720733643E-1,9.593673706E0
3.854191228E1,1.415740967E0,8.659973145E-1,9.143569946E0
3.864216253E1,1.102096558E0,9.785308838E-1,9.737319946E0
3.874238225E1,1.284057617E0,6.433410645E-1,9.476364136E0
3.884263250E1,1.463623047E0,7.175598145E-1,9.739715576E0
3.894288274E1,1.102096558E0,1.268218994E0,9.517059326E0
3.904310247E1,1.157165527E0,8.324737549E-1,8.901748657E0
3.914335271E1,1.288848877E0,6.170043945E-1,9.009490967E0
3.924360296E1,1.456436157E0,5.499725342E-1,9.423690796E0
3.934382268E1,1.142791748E0,6.768646240E-1,9.900131226E0
3.944407293E1,1.588119507E0,3.608245850E-1,9.620010376E0
3.954429265E1,1.647979736E0,8.372650146E-1,9.155532837E0
3.964454290E1,1.700653076E0,8.947296143E-1,9.816329956E0
3.974479314E1,1.549804688E0,5.595397949E-1,8.916122437E0
3.984501287E1,2.062164307E0,-3.182983398E-2,1.023052979E1
3.994526311E1,1.887390137E0,-5.370025635E-1,8.899353027E0
4.004548284E1,1.918518066E0,-5.513610840E-1,9.612823486E0
4.014573308E1,1.961608887E0,-1.339065552E0,9.399749756E0
4.024598333E1,1.995132446E0,-1.770019531E0,9.509872437E0
4.034620305E1,1.669525146E0,-8.841552734E-1,9.493118286E0
4.044645330E1,1.920913696E0,-5.992584229E-1,9.857040405E0
4.054670354E1,1.418136597E0,-9.559936523E-1,9.098068237E0
4.064692327E1,1.307998657E0,-9.248657227E-1,9.971954346E0
4.074717351E1,1.231384277E0,-6.878356934E-1,9.495513916E0
4.084739324E1,1.205047607E0,-7.883911133E-1,9.916885376E0
4.094764046E1,1.068572998E0,-9.895019531E-1,9.215393066E0
4.104789071E1,1.224197388E0,-1.006271362E0,9.957595825E0
4.114811044E1,8.387298584E-1,-1.207382202E0,9.433258057E0
4.124836068E1,1.061401367E0,-1.245681763E0,9.804367065E0
4.134861092E1,1.394195557E0,-1.686218262E0,9.950408936E0
4.144883065E1,9.201354980E-1,-1.125976562E0,9.459594727E0
4.154908089E1,1.401367188E0,-1.216949463E0,9.397354126E0
4.164930062E1,1.331939697E0,-1.741287231E0,9.490722656E0
4.174955086E1,1.341522217E0,-1.379760742E0,8.726974487E0
4.184977059E1,9.273223877E-1,-1.078094482E0,9.205810547E0
4.195002084E1,1.549804688E0,-9.895019531E-1,9.811553955E0
4.205027108E1,1.135620117E0,-9.272613525E-1,8.952026367E0
4.215049081E1,1.415740967E0,-8.314819336E-1,9.593673706E0
4.225074105E1,1.533050537E0,-5.920715332E-1,9.131591797E0
4.235099130E1,2.078933716E0,-6.447448730E-1,9.593673706E0
4.245121102E1,7.956390381E-1,-1.231323242E0,9.708602905E0
4.255146127E1,1.023086548E0,-1.303146362E0,9.600860596E0
4.265171151E1,4.341125488E-1,-1.219345093E0,8.906539917E0
4.275193124E1,1.097305298E0,-9.488067627E-1,9.890548706E0
4.285218148E1,1.894577026E0,-8.697967529E-1,9.133987427E0
4.295240121E1,1.348693848E0,-1.195404053E0,9.859436035E0
4.305265145E1,7.669067383E-1,-1.700576782E0,9.433258057E0
4.315290170E1,6.902923584E-1,-1.161895752E0,9.380584717E0
4.325312142E1,9.799957275E-1,4.565887451E-1,9.337493896E0
4.335337167E1,1.446853638E0,7.821960449E-1,9.205810547E0
4.345362191E1,1.664733887E0,9.521942139E-1,1.050347900E1
4.355384164E1,7.884521484E-1,-2.329406738E-1,9.351867676E0
4.365409188E1,8.937988281E-1,5.915832520E-2,9.631988525E0
4.375431161E1,9.464721680E-1,4.111022949E-1,8.741333008E0
4.385456185E1,2.011886597E0,3.761291504E-2,1.029757690E1
4.395481210E1,8.531036377E-1,1.645050049E-1,9.706207275E0
4.405503182E1,8.554992676E-1,3.512420654E-1,9.507476807E0
4.415528207E1,7.788848877E-1,-5.337524414E-2,9.260879517E0
4.425550179E1,1.559387207E0,5.020751953E-1,9.749298096E0
4.435575204E1,1.164352417E0,-1.994171143E-1,9.816329956E0
4.445600228E1,7.118377686E-1,3.320922852E-1,9.282424927E0
4.455622201E1,1.030273438E0,3.177337646E-1,9.260879517E0
4.465647225E1,1.734161377E0,1.381683350E-1,9.971954346E0
4.475672250E1,6.663513184E-1,1.381683350E-1,9.809158325E0
4.485694222E1,9.967498779E-1,2.746276855E-1,9.191452026E0
4.495716195E1,1.056610107E0,9.506225586E-2,9.483535767E0
4.505741219E1,1.391799927E0,4.063110352E-1,9.871398926E0
4.515766244E1,1.214630127E0,-6.056213379E-2,9.928863525E0
4.525791268E1,5.969238281E-1,2.746276855E-1,9.141174316E0
4.535816293E1,1.260116577E0,3.584289551E-1,9.627197266E0
4.545838265E1,1.535446167E0,-1.985168457E-2,9.801971436E0
4.555863290E1,8.650665283E-1,3.943481445E-1,9.615219116E0
4.565885262E1,7.812805176E-1,1.764678955E-1,8.935272217E0
4.575910287E1,1.614456177E0,-5.577087402E-2,1.043164062E1
4.585935311E1,6.543731689E-1,4.206848145E-1,9.332702637E0
4.595957284E1,1.329544067E0,3.129425049E-1,8.748519897E0
4.605982308E1,1.389404297E0,-2.999725342E-1,1.076922607E1
4.616004281E1,3.000335693E-1,-1.491394043E-1,8.501922607E0
4.626029305E1,1.715011597E0,-2.464294434E-2,9.567337036E0
4.636054330E1,1.873031616E0,-1.539306641E-1,1.016349792E1
4.646076302E1,9.991455078E-1,6.864318848E-1,9.641555786E0
4.656101327E1,1.355880737E0,8.731842041E-1,9.488327026E0
4.666126351E1,1.018295288E0,7.558593750E-1,9.615219116E0
4.676148324E1,1.023086548E0,3.105468750E-1,9.859436035E0
4.686173348E1,9.608306885E-1,2.913970947E-1,9.737319946E0
4.696195321E1,1.164352417E0,4.254608154E-1,9.332702637E0
4.706220345E1,9.105529785E-1,2.267456055E-1,9.519454956E0
4.716242318E1,1.128433228E0,8.659973145E-1,9.550582886E0
4.726264291E1,1.013504028E0,9.306488037E-1,9.794784546E0
4.736289315E1,9.416809082E-1,2.446166992E0,9.354248047E0
4.746314339E1,1.118850708E0,2.965713501E0,9.382980347E0
4.756336312E1,8.866119385E-1,3.075851440E0,9.349472046E0
4.766361336E1,9.704132080E-1,2.877136230E0,9.351867676E0
4.776389413E1,1.078155518E0,3.736648560E0,9.787612915E0
4.786411385E1,1.248138428E0,3.667221069E0,9.780426025E0
4.796433358E1,1.051818848E0,3.535537720E0,9.615219116E0
4.806458382E1,1.054214478E0,4.064651489E0,9.196243286E0
4.816483407E1,1.549804688E0,4.502792358E0,9.536209106E0
4.826505380E1,9.345092773E-1,4.718276978E0,9.406921387E0
4.836533456E1,1.070968628E0,5.039093018E0,8.911331177E0
4.846555428E1,1.224197388E0,4.842773438E0,9.830703735E0
4.856577401E1,1.650375366E0,4.706298828E0,9.574523926E0
4.866602425E1,1.384613037E0,5.314422607E0,9.689437866E0
4.876624398E1,6.855010986E-1,5.544265747E0,9.445236206E0
4.886652474E1,1.269683838E0,5.647216797E0,9.229751587E0
4.896674447E1,6.902923584E-1,3.973678589E0,9.236938477E0
4.906699471E1,4.077758789E-1,4.663208008E0,1.087217712E1
4.916724496E1,-2.218933105E-1,4.758972168E0,9.098068237E0
4.926746468E1,1.312789917E0,4.933746338E0,1.101821899E1
4.936768441E1,-8.543395996E-2,3.451736450E0,8.509094238E0
4.946793465E1,1.949645996E0,2.223510742E0,8.509094238E0
4.956815438E1,1.231384277E0,2.034378052E0,9.148345947E0
4.966843514E1,5.131225586E-1,4.000015259E0,1.058486938E1
4.976868539E1,2.083724976E0,3.729461670E0,9.248916626E0
4.986887460E1,7.980346680E-1,3.226684570E0,8.221801758E0
4.996912484E1,1.626419067E0,2.419830322E0,9.423690796E0
5.006937508E1,1.260116577E0,2.206756592E0,9.045410156E0
5.016962533E1,2.359054565E0,-1.754760742E-1,9.878585815E0
5.026987557E1,5.969238281E-1,1.555526733E0,6.533889771E0
5.037009530E1,2.258499146E0,4.409423828E0,8.851470947E0
5.047031503E1,7.498168945E-2,5.867492676E0,1.535891724E1
5.057056527E1,3.646850586E-1,3.530746460E0,9.184265137E0
5.067081551E1,3.551025391E-1,2.826858521E0,9.914505005E0
5.077103524E1,4.652404785E-1,3.183593750E0,9.208206177E0
5.087128548E1,1.530654907E0,1.251464844E0,8.832321167E0
5.097152758E1,1.157165527E0,2.154083252E0,9.131591797E0
5.107177782E1,8.195800781E-1,2.599395752E0,1.077162170E1
5.117202806E1,9.943542480E-1,2.410263062E0,1.005335999E1
5.127224779E1,1.264907837E0,2.178024292E0,9.442840576E0
5.137252855E1,1.592910767E0,2.474899292E0,9.473968506E0
5.147274828E1,7.573242188E-1,2.345611572E0,9.318344116E0
5.157299852E1,1.042236328E0,2.273788452E0,1.015391541E1
5.167321825E1,8.961944580E-1,2.146896362E0,9.217788696E0
5.177346849E1,1.116455078E0,2.103805542E0,9.732543945E0
5.187371874E1,-5.430603027E-2,2.980087280E0,9.476364136E0
5.197393846E1,1.499526978E0,1.814102173E0,9.782821655E0
5.207418871E1,1.152374268E0,1.924240112E0,9.378204346E0
5.217440844E1,1.901763916E0,1.964935303E0,1.046516418E1
5.227465868E1,-1.548614502E-1,2.324066162E0,9.466781616E0
5.237490892E1,1.992736816E0,1.220336914E0,1.013476562E1
5.247515917E1,8.842163086E-1,2.482086182E0,1.075007629E1
5.257540941E1,1.932876587E0,1.103027344E0,8.987945557E0
5.267562914E1,1.300506592E-1,1.929031372E0,9.363830566E0
5.277587938E1,9.799957275E-1,2.786148071E0,9.869003296E0
5.287609911E1,1.695861816E0,2.685592651E0,9.998291016E0
5.297637987E1,1.700653076E0,1.612991333E0,1.051544189E1
5.307663012E1,6.173019409E0,5.140533447E-1,1.304132080E1
5.317684984E1,-1.703903198E0,-3.041336060E0,9.576919556E0
5.327710009E1,2.701416016E0,-3.723678589E0,7.486770630E0
5.337731981E1,5.615173340E0,-1.659881592E0,8.511489868E0
5.347757006E1,2.320739746E0,6.385498047E-1,8.954421997E0
5.357782030E1,-1.328018188E0,2.721511841E0,8.243347168E0
5.367807055E1,8.004302979E-1,1.454971313E0,8.267288208E0
5.377829027E1,2.725372314E0,4.124511719E0,1.160241699E1
5.387854052E1,4.073303223E0,2.034378052E0,1.337651062E1
5.397876024E1,1.219406128E0,3.513992310E0,9.948013306E0
5.407901049E1,-7.653808594E-1,1.627349854E0,1.335736084E1
5.417926073E1,2.174697876E0,4.901123047E-1,8.940063477E0
5.427948046E1,4.748077393E-1,2.659255981E0,1.029039001E1
5.437970018E1,6.807098389E-1,2.268997192E0,8.827529907E0
5.447995043E1,5.897369385E-1,2.031982422E0,9.646347046E0
5.458020067E1,1.221801758E0,1.435821533E0,9.801971436E0
5.468042040E1,1.257720947E0,1.775802612E0,8.178695679E0
5.478067064E1,7.405700684E-1,1.490890503E0,8.370239258E0
5.488089037E1,1.664733887E0,1.367187500E-2,1.066867065E1
5.498114061E1,-2.553848267E0,4.409423828E0,9.045410156E0
5.508139086E1,1.288848877E0,3.200347900E0,8.466003418E0
5.518161058E1,9.680175781E-1,1.569900513E0,8.777252197E0
5.528189135E1,6.256561279E-1,9.833221436E-1,9.548187256E0
5.538214159E1,1.003936768E0,1.124572754E0,1.077401733E1
5.548236132E1,9.584503174E-1,1.239501953E0,9.466781616E0
5.558258104E1,1.056610107E0,1.277801514E0,9.306365967E0
5.568283129E1,6.926879883E-1,1.967330933E0,9.224975586E0
5.578308153E1,5.107269287E-1,1.921844482E0,9.287216187E0
5.588333178E1,1.659698486E-1,1.447784424E0,9.100463867E0
5.598358202E1,7.740936279E-1,6.241912842E-1,9.318344116E0
5.608380175E1,2.377929688E-1,1.694396973E0,1.007011414E1
5.618402147E1,1.851196289E-1,1.347229004E0,9.519454956E0
5.628427172E1,2.210235596E-1,1.670455933E0,9.088500977E0
5.638449144E1,8.411254883E-1,1.735092163E0,9.016677856E0
5.648474169E1,9.919586182E-1,1.656082153E0,9.265670776E0
5.658499193E1,6.519927979E-1,1.004867554E0,9.409317017E0
5.668521166E1,1.293624878E0,1.071899414E0,9.919281006E0
5.678546190E1,5.586090088E-1,7.845916748E-1,9.691833496E0
5.688571215E1,1.221801758E0,5.451812744E-1,9.699020386E0
5.698596239E1,9.440765381E-1,1.296951294E0,9.979141235E0
5.708618212E1,9.177398682E-1,1.809310913E0,1.023292542E1
5.718643236E1,8.028259277E-1,1.476516724E0,9.280029297E0
5.728665209E1,1.372634888E0,6.768646240E-1,9.196243286E0
5.738690233E1,-2.410583496E-1,2.175628662E0,8.662322998E0
5.748715258E1,1.329544067E0,1.522018433E0,9.950408936E0
5.758737230E1,6.567687988E-1,1.670455933E0,9.806762695E0
5.768762255E1,4.460906982E-1,2.024795532E0,9.251296997E0
5.778787279E1,7.980346680E-1,1.976913452E0,9.718170166E0
5.788809252E1,3.096160889E-1,1.816497803E0,1.050108337E1
5.798834276E1,4.149627686E-1,2.041549683E0,9.672683716E0
5.808859301E1,1.042236328E0,1.991271973E0,9.574523926E0
5.818881273E1,3.263702393E-1,1.761428833E0,9.636764526E0
5.828906298E1,8.171844482E-1,1.670455933E0,8.851470947E0
5.838931322E1,1.870635986E0,1.308929443E0,9.351867676E0
5.848956346E1,-9.739685059E-2,1.976913452E0,1.027841187E1
5.858978319E1,4.819946289E-1,1.804519653E0,9.608047485E0
5.869003344E1,1.789230347E0,1.354415894E0,9.124404907E0
5.879028368E1,1.236175537E0,1.328079224E0,9.476364136E0
5.889053392E1,6.472015381E-1,1.629745483E0,9.256088257E0
5.899075365E1,1.358276367E0,1.126968384E0,1.001745605E1
5.909097338E1,1.276870728E0,7.726287842E-1,9.766052246E0
5.919125414E1,1.683883667E0,1.347229004E0,9.763656616E0
5.929147386E1,1.341522217E0,8.612060547E-1,9.469177246E0
5.939175463E1,9.488677979E-1,1.562713623E0,9.581710815E0
5.949197435E1,6.136779785E-1,1.668060303E0,9.244125366E0
5.959219408E1,1.135620117E0,2.082260132E0,9.538604736E0
5.969244432E1,2.359054565E0,2.443786621E0,9.083709717E0
5.979266405E1,1.310394287E0,8.947296143E-1,1.087696838E1
5.989291430E1,1.207443237E0,3.249053955E-1,1.030235291E1
5.999313402E1,4.389328003E0,-1.394119263E0,1.199745178E1
6.009338427E1,-9.186096191E-1,6.632995605E-2,9.428482056E0
6.019363451E1,5.038162231E0,2.842102051E-1,1.025207520E1
6.029388475E1,-1.883850098E-1,1.615386963E0,9.926467896E0
6.039413500E1,2.778030396E0,-3.861694336E-1,9.950408936E0
6.049435472E1,-9.736785889E-1,4.644042969E0,1.001506042E1
6.059460497E1,9.656219482E-1,2.551513672E0,1.114033508E1
6.069482470E1,1.013183594E-1,1.383148193E0,1.009884644E1
6.079507494E1,2.425842285E-1,2.331253052E0,9.272857666E0
6.089532518E1,2.725372314E0,5.786895752E-1,8.312774658E0
6.099550259E1,5.274810791E-1,5.595397949E-1,9.416503906E0
6.109578335E1,2.835494995E0,-3.837738037E-1,1.081231689E1
6.119600307E1,1.300811768E0,1.172454834E0,9.830703735E0
6.129625332E1,8.961944580E-1,2.115768433E0,9.404525757E0
6.139650356E1,2.311172485E0,6.457366943E-1,1.218659973E1
6.149672329E1,8.339385986E-1,-1.039779663E0,9.256088257E0
6.159694302E1,1.712615967E0,-1.274414062E0,9.998291016E0
6.169719326E1,1.121246338E0,9.569854736E-1,9.517059326E0
6.179744350E1,-3.607635498E-1,4.493209839E0,6.627258301E0
6.189766323E1,-1.979522705E-1,2.668838501E0,7.010330200E0
6.199791348E1,2.543411255E0,-2.500244141E0,7.697463989E0
6.209816372E1,2.993515015E0,-1.161895752E0,8.770065308E0
6.219838345E1,1.485168457E0,7.774200439E-1,1.021856689E1
6.229863369E1,2.040618896E0,6.484985352E-3,9.945617676E0
6.239888393E1,4.245300293E-1,9.402160645E-1,8.846679688E0
6.249913418E1,6.472015381E-1,1.395126343E0,9.880981445E0
6.259935390E1,6.352233887E-1,1.035995483E0,1.009167480E1
6.269960415E1,7.142333984E-1,4.996948242E-1,8.207427979E0
6.279985439E1,1.391799927E0,7.774200439E-1,8.636001587E0
6.290007412E1,1.245742798E0,1.529190063E0,9.095687866E0
6.300032436E1,-3.248443604E-1,7.295379639E-1,9.323135376E0
6.310054409E1,9.656219482E-1,1.940994263E0,9.330307007E0
6.320082485E1,7.740936279E-1,5.715179443E-1,1.013716125E1
6.330104458E1,1.482772827E0,-8.210754395E-2,9.902526855E0
6.340126431E1,8.842163086E-1,1.435821533E0,1.068782043E1
6.350154507E1,6.807098389E-1,1.320892334E0,1.030474854E1
6.360179531E1,4.700317383E-1,2.575454712E0,9.133987427E0
6.370204556E1,9.440765381E-1,4.111022949E-1,9.078918457E0
6.380226528E1,2.086120605E0,4.718017578E-2,9.090896606E0
6.390251553E1,7.932434082E-1,9.952850342E-1,9.143569946E0
6.400273525E1,8.363342285E-1,1.433425903E0,9.428482056E0
6.410295498E1,-8.395996094E-1,7.415008545E-1,9.093292236E0
6.420320522E1,1.779327393E-1,6.241912842E-1,9.325531006E0
6.430345547E1,1.554595947E0,1.881149292E0,8.681488037E0
6.440367519E1,1.755706787E0,-3.422546387E-2,8.755706787E0
6.450395596E1,2.189056396E0,-2.951812744E-1,8.801193237E0
6.460417568E1,2.050201416E0,8.827667236E-1,1.086499023E1
6.470442593E1,8.985900879E-1,9.976806641E-1,1.177479553E1
6.480464565E1,1.097305298E0,5.475769043E-1,1.017546082E1
6.490492641E1,1.102096558E0,6.074218750E-1,9.636764526E0
6.500514614E1,9.632263184E-1,4.733581543E-1,8.607269287E0
6.510539638E1,1.133224487E0,7.438964844E-1,9.248916626E0
6.520561611E1,9.704132080E-1,9.114837646E-1,9.505096436E0
6.530583584E1,2.277648926E0,7.032012939E-1,1.138932800E1
6.540608608E1,-1.572570801E-1,1.268218994E0,1.119538879E1
6.550633633E1,-1.979522705E-1,8.947296143E-1,1.137257385E1
6.560661709E1,-1.788024902E-1,1.258651733E0,1.120497131E1
6.570683681E1,-6.935577393E-1,1.902694702E0,1.083627319E1
6.580705654E1,2.325531006E0,2.698364258E-1,8.925689697E0
6.590727627E1,7.118377686E-1,-2.943420410E-2,9.643951416E0
6.600752651E1,1.336730957E0,2.323913574E-2,9.387771606E0
6.610777676E1,1.145187378E0,3.847656250E-1,9.069351196E0
6.620799648E1,1.312789917E0,4.446258545E-1,9.088500977E0
6.630824673E1,5.298767090E-1,1.258651733E0,9.562545776E0
6.640849697E1,1.571365356E0,7.678375244E-1,9.179473877E0
6.650874722E1,1.291244507E0,3.201293945E-1,9.502700806E0
6.660896694E1,1.317581177E0,1.007263184E0,1.051065063E1
6.670921718E1,6.424102783E-1,4.350433350E-1,9.385375977E0
6.680946743E1,1.985549927E0,3.991241455E-1,1.005096436E1
6.690968716E1,2.107666016E0,-3.406829834E-1,8.786834717E0
6.700993740E1,1.432495117E0,-6.662902832E-1,9.234542847E0
6.711018764E1,-3.056945801E-1,1.742279053E0,8.501922607E0
6.721040737E1,1.123641968E0,1.280197144E0,9.306365967E0
6.731065762E1,2.562561035E0,-5.441894531E-1,8.640777588E0
6.741087734E1,1.142791748E0,-3.861694336E-1,1.064233398E1
6.751115810E1,2.141174316E0,7.606506348E-1,1.180831909E1
6.761137783E1,6.062316895E-2,9.114837646E-1,1.012518311E1
6.771162807E1,5.921325684E-1,2.204360962E0,8.997512817E0
6.781184780E1,7.525482178E-1,1.474121094E0,7.079757690E0
6.791209805E1,4.245300293E-1,4.422302246E-1,7.922515869E0
6.801234829E1,1.889785767E0,2.435150146E-1,8.971176147E0
6.811256802E1,1.276870728E0,8.229064941E-1,1.055136108E1
6.821281826E1,1.839508057E0,-9.167480469E-2,1.235179138E1
6.831306850E1,1.770080566E0,1.648910522E0,1.028799438E1
6.841328823E1,5.873413086E-1,7.415008545E-1,9.399749756E0
6.851353848E1,4.700317383E-1,1.699188232E0,6.117294312E0
6.861378872E1,6.902923584E-1,7.558593750E-1,9.655929565E0
6.871400844E1,1.640792847E0,-3.047637939E-1,1.004139709E1
6.881425869E1,4.676361084E-1,2.698364258E-1,1.003421021E1
6.891450893E1,7.429656982E-1,2.243499756E-1,9.955200195E0
6.901472866E1,2.952575684E-1,2.307312012E0,1.057051086E1
6.911500942E1,1.489959717E0,-1.580871582E0,9.806762695E0
6.921522915E1,6.472015381E-1,-6.294250488E-2,9.940841675E0
6.931547939E1,6.304321289E-1,9.306488037E-1,8.932876587E0
6.941569912E1,6.232604980E-1,7.893829346E-1,9.713378906E0
6.951594936E1,9.560546875E-1,1.148513794E0,1.023052979E1
6.961619961E1,-1.007202148E0,4.641662598E0,5.712677002E0
6.971644985E1,4.005889893E-1,-8.051452637E-1,6.960052490E0
6.981666958E1,1.406158447E0,-3.364547729E0,9.543395996E0
6.991691982E1,5.969238281E-1,2.029586792E0,1.338369751E1
7.001713955E1,-7.106018066E-2,1.022491455E-1,7.757324219E0
7.011738979E1,2.708602905E0,1.148513794E0,9.450027466E0
7.021764004E1,1.480377197E0,2.072677612E0,9.009490967E0
7.031785976E1,9.129486084E-1,-2.069290161E0,6.845138550E0
7.041811001E1,-2.913360596E-1,-2.377319336E-1,1.040290833E1
7.051836025E1,1.049423218E0,7.798156738E-1,9.284820557E0
7.061857998E1,7.166290283E-1,1.045562744E0,9.900131226E0
7.071883022E1,5.346679688E-1,1.763824463E0,8.693450928E0
7.081908047E1,1.920913696E0,2.195587158E-1,7.273696899E0
7.091933071E1,3.340667725E0,-2.089996338E-1,9.505096436E0
7.101956199E1,-6.149291992E-2,1.421447754E0,8.841888428E0
7.111981224E1,4.125671387E-1,3.201293945E-1,8.542617798E0
7.122003196E1,2.071746826E0,3.464508057E-1,7.956039429E0
7.132028220E1,-6.911621094E-1,1.086273193E0,5.308059692E0
7.142053245E1,3.896133423E0,-3.457931519E0,9.888168335E0
7.152078269E1,-3.847045898E-1,1.775802612E0,1.234222412E1
7.162100242E1,-1.716156006E-1,1.964935303E0,1.179154968E1
7.172125266E1,6.448059082E-1,-3.813781738E-1,8.686279297E0
7.182150291E1,1.272079468E0,4.422302246E-1,7.254547119E0
7.192175315E1,3.225753784E0,-1.161895752E0,8.166732788E0
7.202197288E1,9.892272949E-2,3.536376953E-1,8.695846558E0
7.212225364E1,1.937667847E0,-1.750869751E0,1.010842896E1
7.222244285E1,1.983169556E0,-5.131469727E0,7.723800659E0
7.232269309E1,1.707824707E0,-4.999786377E0,8.971176147E0
7.242294334E1,3.431396484E-1,-4.959091187E0,9.919281006E0
7.252316306E1,1.264907837E0,-6.414764404E0,9.277633667E0
7.262341331E1,1.595306396E0,-4.848953247E0,1.056571960E1
7.272366355E1,2.011886597E0,-7.106689453E0,1.108766174E1
7.282391380E1,7.286071777E-1,-5.643829346E0,1.042446899E1
7.292413352E1,3.699798584E0,-7.346115112E0,8.343902588E0
7.302438377E1,2.521850586E0,-2.576858521E0,4.661621094E0
7.312460349E1,4.029846191E-1,-7.875228882E0,1.168859863E1
7.322485374E1,2.519470215E0,-5.267944336E0,9.933654785E0
7.332510398E1,1.767684937E0,-5.885650635E0,9.327911377E0
7.342535423E1,-4.062500000E-1,-4.825012207E0,9.830703735E0
7.352557395E1,1.731765747E0,-5.749176025E0,1.028799438E1
7.362582420E1,1.427703857E0,-4.772338867E0,9.639160156E0
7.372607444E1,5.442504883E-1,-5.495391846E0,9.311157227E0
7.382632469E1,6.448059082E-1,-4.394058228E0,9.409317017E0
7.392654441E1,5.418548584E-1,-4.283920288E0,9.835494995E0
7.402676414E1,1.209838867E0,-5.196121216E0,9.825912476E0
7.412701438E1,-6.815795898E-1,-2.373352051E0,8.631210327E0
7.422726463E1,4.406097412E0,-4.425186157E0,8.875411987E0
7.432751487E1,-3.559722900E-1,-2.821075439E0,6.280105591E0
7.442773460E1,1.698257446E0,-5.253585815E0,8.920898438E0
7.452798484E1,1.530654907E0,-5.986206055E0,1.179154968E1
7.462823509E1,2.260894775E0,-2.998245239E0,9.679870605E0
7.472845481E1,1.674316406E0,-3.963104248E0,9.670288086E0
7.482870506E1,9.033813477E-1,-2.993453979E0,8.961608887E0
7.492895530E1,1.485168457E0,-3.003036499E0,9.215393066E0
7.502917503E1,1.401367188E0,-2.533767700E0,8.315170288E0
7.512945579E1,2.069351196E0,-2.370956421E0,9.054977417E0
7.522967552E1,1.269683838E0,-2.464340210E0,9.045410156E0
7.532989524E1,1.473190308E0,-2.651077271E0,9.196243286E0
7.543014549E1,9.823913574E-1,-2.876144409E0,9.253692627E0
7.553039573E1,1.274475098E0,-2.588836670E0,9.105255127E0
7.563061546E1,1.217010498E0,-2.536163330E0,9.557754517E0
7.573086570E1,1.466018677E0,-2.742065430E0,9.193847656E0
7.583111595E1,1.427703857E0,-2.014221191E0,9.179473877E0
7.593136619E1,7.501525879E-1,-1.614395142E0,9.272857666E0
7.603158592E1,6.040954590E-1,-1.087661743E0,9.648742676E0
7.613183616E1,5.274810791E-1,-1.066116333E0,9.677474976E0
7.623205589E1,4.676361084E-1,-1.018234253E0,9.306365967E0
7.633230613E1,1.243347168E0,-1.121185303E0,9.483535767E0
7.643255638E1,6.352233887E-1,-8.482513428E-1,9.775634766E0
7.653280662E1,6.400146484E-1,-7.788238525E-1,9.770843506E0
7.663302635E1,1.032669067E0,-9.895019531E-1,9.631988525E0
7.673327659E1,8.315582275E-1,-1.209777832E0,9.545791626E0
7.683349632E1,8.459167480E-1,-4.364471436E-1,9.670288086E0
7.693374656E1,5.298767090E-1,7.830810547E-2,9.469177246E0
7.703399680E1,9.153442383E-1,-7.189636230E-1,9.253692627E0
7.713424705E1,5.610046387E-1,-3.095550537E-1,8.849075317E0
7.723449729E1,6.256561279E-1,-4.986877441E-1,9.610427856E0
7.733471702E1,6.304321289E-1,-1.682891846E-1,9.339889526E0
7.743496726E1,7.836608887E-1,-7.261505127E-1,9.481140137E0
7.753518699E1,5.825500488E-1,-8.689880371E-2,9.574523926E0
7.763543724E1,7.022705078E-1,-2.089996338E-1,9.452423096E0
7.773565696E1,6.088867188E-1,-1.563262939E-1,9.744506836E0
7.783590720E1,9.105529785E-1,-1.066116333E0,9.100463867E0
7.793615745E1,1.497146606E0,-2.425079346E-1,9.153137207E0
7.803640769E1,1.094909668E0,-1.023025513E0,8.952026367E0
7.813665794E1,1.298416138E0,1.525268555E-1,9.660705566E0
7.823687766E1,1.442077637E0,-7.333221436E-1,9.303970337E0
7.833715843E1,9.297180176E-1,-1.228927612E0,1.035981750E1
7.843737815E1,9.632263184E-1,-5.800933838E-1,8.822738647E0
7.853759788E1,9.536590576E-1,-4.053192139E-1,8.920898438E0
7.863784812E1,1.585723877E0,-7.788238525E-1,9.007095337E0
7.873806785E1,9.776000977E-1,3.895568848E-1,9.588882446E0
7.883831809E1,1.449249268E0,-1.563262939E-1,9.648742676E0
7.893856834E1,9.105529785E-1,-3.741912842E-1,9.246520996E0
7.903881858E1,1.193069458E0,-6.974182129E-1,9.196243286E0
7.913903831E1,1.463623047E0,-7.453002930E-1,9.387771606E0
7.923928855E1,1.331939697E0,-8.267059326E-1,9.775634766E0
7.933953880E1,9.680175781E-1,-3.430786133E-1,9.399749756E0
7.943975852E1,1.849090576E0,-1.012573242E-1,8.966400146E0
7.954000877E1,1.422912598E0,2.842102051E-1,9.495513916E0
7.964025901E1,1.061401367E0,2.626647949E-1,8.794006348E0
7.974047874E1,1.303207397E0,1.812591553E-1,9.114837646E0
7.984072898E1,7.693023682E-1,-9.886169434E-2,9.555374146E0
7.994097923E1,1.753326416E0,-6.543121338E-1,1.058009338E1
8.004119895E1,1.003936768E0,-1.539306641E-1,9.093292236E0
8.014144920E1,1.552200317E0,1.285858154E-1,8.964004517E0
8.024169944E1,2.232162476E0,-1.018234253E0,9.397354126E0
8.034191917E1,1.360671997E0,-5.226440430E-1,9.366226196E0
8.044216941E1,1.698257446E0,-1.994171143E-1,9.212997437E0
8.054241966E1,1.420532227E0,2.803039551E-2,9.538604736E0
8.064263938E1,1.686279297E0,-8.913421631E-1,8.719787598E0
8.074288963E1,1.319961548E0,2.099914551E-1,9.416503906E0
8.084313987E1,1.372634888E0,-6.208038330E-1,8.889785767E0
8.094336795E1,1.384613037E0,-3.047637939E-1,8.980758667E0
8.104361820E1,1.279266357E0,-1.515350342E-1,1.084823608E1
8.114383792E1,9.943542480E-1,-5.058746338E-1,8.597686768E0
8.124408817E1,2.033447266E0,-1.994171143E-1,1.113314819E1
8.134433841E1,7.166290283E-1,6.002502441E-1,7.637619019E0
8.144458866E1,1.770080566E0,-6.878356934E-1,9.919281006E0
8.154480838E1,6.208648682E-1,-1.850585938E-1,9.890548706E0
8.164505863E1,1.358276367E0,-2.999725342E-1,9.145965576E0
8.174530887E1,1.403762817E0,6.394958496E-2,8.954421997E0
8.184555912E1,1.003936768E0,-4.867248535E-1,8.930480957E0
8.194577884E1,1.286453247E0,-9.607696533E-1,9.157928467E0
8.204602909E1,1.468414307E0,-1.480316162E0,9.392562866E0
8.214624881E1,1.442077637E0,-1.116394043E0,1.099188232E1
8.224649906E1,5.059356689E-1,-5.920715332E-1,9.572128296E0
8.234674930E1,1.025482178E0,-8.602142334E-1,9.696624756E0
8.244699955E1,6.878967285E-1,-1.094848633E0,9.442840576E0
8.254721927E1,7.118377686E-1,-9.775390625E-1,8.561767578E0
8.264750003E1,1.691070557E0,-1.312728882E0,9.981536865E0
8.274771976E1,7.836608887E-1,-5.633392334E-1,9.057373047E0
8.284793949E1,1.659942627E0,-7.500915527E-1,9.773239136E0
8.294818973E1,1.219406128E0,-5.441894531E-1,9.766052246E0
8.304840946E1,1.636001587E0,-8.267059326E-1,9.280029297E0
8.314865970E1,1.035064697E0,4.089355469E-3,9.246520996E0
8.324890995E1,1.556991577E0,-1.108398438E-1,9.560150146E0
8.334912967E1,8.123931885E-1,-2.329406738E-1,8.770065308E0
8.344937992E1,1.451644897E0,-1.566513062E0,9.576919556E0
8.354963016E1,9.009857178E-1,-1.322296143E0,9.280029297E0
8.364988040E1,1.236175537E0,-6.423492432E-1,1.012997437E1
8.375010013E1,1.240966797E0,-1.078094482E0,9.639160156E0
8.385031986E1,8.842163086E-1,-8.267059326E-1,1.001983643E1
8.395057010E1,1.444473267E0,-7.093811035E-1,9.517059326E0
8.405082035E1,9.656219482E-1,-2.568817139E-1,8.578536987E0
8.415107059E1,1.451644897E0,-9.990844727E-1,1.052023315E1
8.425129032E1,5.586090088E-1,-1.013442993E0,8.772460938E0
8.435154056E1,1.149978638E0,-5.992584229E-1,9.124404907E0
8.445179080E1,9.895629883E-1,-1.252868652E0,9.289611816E0
8.455201053E1,2.043014526E0,-1.444396973E0,9.576919556E0
8.465226078E1,9.440765381E-1,4.111022949E-1,1.006533813E1
8.475251102E1,3.781204224E0,-1.856201172E0,1.260317993E1
8.485276126E1,2.002319336E0,2.626647949E-1,9.749298096E0
8.495298099E1,8.291625977E-1,-1.432434082E0,9.859436035E0
8.505323124E1,-1.526733398E0,7.438964844E-1,7.419738770E0
8.515348148E1,1.511505127E0,-6.830444336E-1,1.131750488E1
8.525370121E1,1.367858887E0,-1.658935547E-1,9.979141235E0
8.535395145E1,1.243347168E0,-6.806488037E-1,1.019223022E1
8.545417118E1,1.937667847E0,-1.547348022E0,9.071731567E0
8.555442142E1,1.099700928E0,-6.064300537E-1,9.782821655E0
8.565467167E1,1.181106567E0,-1.102035522E0,8.813171387E0
8.575492191E1,1.585723877E0,-5.489654541E-1,9.734939575E0
8.585517215E1,9.249267578E-1,-1.011047363E0,9.028640747E0
8.595539188E1,1.786834717E0,-8.793792725E-1,9.991119385E0
8.605564212E1,1.446853638E0,-1.003875732E0,9.052581787E0
8.615586185E1,1.521087646E0,-5.202484131E-1,9.476364136E0
8.625611209E1,1.470809937E0,-5.202484131E-1,9.380584717E0
8.635633182E1,1.784439087E0,-1.068511963E0,9.811553955E0
8.645658206E1,1.140396118E0,-1.293563843E0,9.296798706E0
8.655683231E1,1.901763916E0,-1.358215332E0,9.948013306E0
8.665708255E1,8.842163086E-1,-1.099639893E0,8.647964478E0
8.675730228E1,1.930496216E0,-1.011047363E0,1.030714417E1
8.685755252E1,9.632263184E-1,-8.697967529E-1,8.815567017E0
8.695783329E1,1.975982666E0,-1.394119263E0,1.001266479E1
8.705802250E1,1.197860718E0,-7.931823730E-1,9.375808716E0
8.715827274E1,1.889785767E0,-7.453002930E-1,9.574523926E0
8.725852298E1,1.954437256E0,-9.464111328E-1,8.920898438E0
8.735877323E1,1.267303467E0,-4.699707031E-1,9.411712646E0
8.745899295E1,1.226593018E0,-1.018234253E0,9.423690796E0
8.755924320E1,1.274475098E0,-6.184082031E-1,9.933654785E0
8.765946292E1,1.439682007E0,-1.001480103E0,9.155532837E0
8.775971317E1,1.035064697E0,-3.358917236E-1,9.373413086E0
8.785996341E1,1.205047607E0,-5.585479736E-1,9.560150146E0
8.796018314E1,1.880218506E0,-1.032608032E0,9.634368896E0
8.806046390E1,2.545471191E-1,-9.128875732E-1,8.762893677E0
8.816068363E1,2.184280396E0,-1.516235352E0,9.962387085E0
8.826090335E1,1.111679077E0,-1.255264282E0,9.347076416E0
8.836115360E1,1.430099487E0,-8.099365234E-1,9.998291016E0
8.846140384E1,1.470809937E0,-1.382156372E0,9.155532837E0
8.856165409E1,1.451644897E0,-9.344329834E-1,9.878585815E0
8.866187381E1,1.391799927E0,-5.178527832E-1,9.699020386E0
8.876215458E1,8.554992676E-1,-7.022094727E-1,8.846679688E0
8.886237430E1,1.473190308E0,-1.312728882E0,9.351867676E0
8.896262455E1,6.783294678E-1,-1.084442139E-1,1.041009521E1
8.906284427E1,1.614456177E0,-1.398910522E0,9.509872437E0
8.916309452E1,6.040954590E-1,-3.478546143E-1,9.114837646E0
8.926331424E1,1.118850708E0,-8.291015625E-1,9.567337036E0
8.936356449E1,1.243347168E0,-8.506469727E-1,9.433258057E0
8.946381473E1,1.190689087E0,-1.231323242E0,9.694229126E0
8.956403446E1,9.919586182E-1,-5.848846436E-1,1.001506042E1
8.966428470E1,1.068572998E0,-9.751434326E-1,8.884994507E0
8.976453495E1,1.698257446E0,-1.221740723E0,9.880981445E0
8.986475467E1,5.921325684E-1,-8.530426025E-1,9.114837646E0
8.996500492E1,1.612060547E0,-1.171463013E0,9.653533936E0
9.006525516E1,7.669067383E-1,-8.243103027E-1,9.177078247E0
9.016550540E1,1.640792847E0,-5.489654541E-1,1.002462769E1
9.026572513E1,1.398971558E0,-7.740325928E-1,9.969558716E0
9.036597538E1,1.425308228E0,-6.998138428E-1,9.524246216E0
9.046619510E1,1.138015747E0,-6.399536133E-1,8.391784668E0
9.056644535E1,1.475585938E0,-9.942932129E-1,8.707824707E0
9.066669559E1,1.475585938E0,-1.032608032E0,9.971954346E0
9.076691532E1,2.359054565E0,-1.245681763E0,1.034545898E1
9.086716556E1,1.734161377E0,-6.255950928E-1,9.883377075E0
9.096747097E1,9.273223877E-1,-2.472991943E-1,9.268066406E0
9.106772122E1,1.205047607E0,-1.058944702E0,8.899353027E0
9.116794095E1,8.961944580E-1,-6.303710938E-1,9.265670776E0
9.126819119E1,1.006332397E0,-1.209777832E0,9.284820557E0
9.136844143E1,1.528259277E0,-1.152313232E0,9.885772705E0
9.146866116E1,8.961944580E-1,-1.011047363E0,9.323135376E0
9.156891140E1,2.169906616E0,-1.339065552E0,9.983932495E0
9.166916165E1,1.288848877E0,-8.745880127E-1,9.418899536E0
9.176938138E1,1.477981567E0,-1.044570923E0,9.157928467E0
9.186963162E1,1.750930786E0,-7.812042236E-1,9.153137207E0
9.196988186E1,1.506713867E0,-7.045898438E-1,9.828308105E0
9.207010159E1,1.264907837E0,-5.848846436E-1,9.390167236E0
9.217035183E1,1.573760986E0,-1.248077393E0,9.442840576E0
9.227060208E1,2.325531006E0,-8.578186035E-1,1.013955688E1
9.237085232E1,1.267303467E0,-1.051757812E0,9.768447876E0
9.247107205E1,9.680175781E-1,-4.747467041E-1,9.461990356E0
9.257132229E1,1.604873657E0,-9.272613525E-1,8.870620728E0
9.267154202E1,1.760498047E0,-1.046966553E0,9.667892456E0
9.277179226E1,1.391799927E0,-5.250244141E-1,9.679870605E0
9.287204251E1,1.214630127E0,-9.512023926E-1,9.560150146E0
9.297229275E1,2.411727905E0,-1.133163452E0,1.070936584E1
9.307251248E1,7.046661377E-1,-7.357177734E-1,9.421295166E0
9.317276272E1,1.624038696E0,-7.213592529E-1,9.744506836E0
9.327304348E1,1.296020508E0,-9.272613525E-1,8.669509888E0
9.337326321E1,7.549438477E-1,-2.257537842E-1,9.600860596E0
9.347351346E1,2.976760864E0,-1.221740723E0,9.485931396E0
9.357373318E1,1.104492188E0,-8.530426025E-1,8.908935547E0
9.367395291E1,1.892181396E0,-1.102035522E0,1.061599731E1
9.377420315E1,5.059356689E-1,-5.848846436E-1,8.559387207E0
9.387442288E1,1.461227417E0,-1.255264282E0,1.004856873E1
9.397467312E1,1.382217407E0,-1.274414062E0,9.031036377E0
9.407492337E1,2.296798706E0,-1.001480103E0,1.048431396E1
9.417514309E1,1.798812866E0,-1.288787842E0,9.193847656E0
9.427539334E1,1.401367188E0,-7.716369629E-1,9.351867676E0
9.437564358E1,1.360671997E0,-1.116394043E0,9.002304077E0
9.447589383E1,1.145187378E0,-9.559936523E-1,9.382980347E0
9.457614407E1,1.348693848E0,-7.213592529E-1,1.004377747E1
9.467636380E1,1.070968628E0,-9.104919434E-1,9.136383057E0
9.477661404E1,1.322357178E0,-8.434600830E-1,9.744506836E0
9.487683377E1,1.865844727E0,-9.104919434E-1,1.109483337E1
9.497708401E1,1.260116577E0,-1.250473022E0,8.221801758E0
9.507733426E1,1.604873657E0,-7.500915527E-1,1.041249084E1
9.517755398E1,7.764892578E-1,-4.005279541E-1,9.976745605E0
9.527780423E1,1.923309326E0,-6.423492432E-1,9.485931396E0
9.537805447E1,1.454040527E0,-1.125976562E0,8.458816528E0
9.547830472E1,1.794021606E0,-1.810714722E0,8.564163208E0
9.557858548E1,1.612060547E0,-6.710815430E-1,9.517059326E0
9.567877469E1,1.212234497E0,-6.710815430E-1,9.524246216E0
9.577899441E1,2.031051636E0,-8.219146729E-1,1.058966064E1
9.587924466E1,1.117929077E1,-1.365243530E1,-1.517674255E1
9.597949490E1,3.826690674E0,2.091827393E0,2.197648621E1
9.607971463E1,2.246520996E0,-2.325469971E0,8.286437988E0
9.617996487E1,1.772476196E0,-3.070068359E0,8.554595947E0
9.628021512E1,1.899368286E0,-2.026199341E0,9.643951416E0
9.638046536E1,3.343063354E0,-1.832260132E0,1.374282837E1
9.648068509E1,-4.897766113E0,3.775787354E-1,-9.454589844E0
9.658093533E1,9.967498779E-1,-6.734771729E-1,1.059924316E1
9.668118557E1,1.156921387E-1,-1.491394043E-1,2.515599060E1
9.678143582E1,4.104431152E0,5.649612427E0,7.798019409E0
9.688165554E1,3.881759644E0,2.915435791E0,1.527990723E1
9.698190579E1,2.643966675E0,5.702285767E0,1.087936401E1
9.708212552E1,-3.801223755E0,6.607299805E0,6.076599121E0
9.718237576E1,-3.976013184E0,3.324844360E0,6.347137451E0
9.728262600E1,-3.604904175E0,6.387023926E0,5.090179443E0
9.738284573E1,-1.466888428E0,5.824386597E0,5.123703003E0
9.748309597E1,-4.828643799E-1,5.565811157E0,6.825973511E0
9.758334622E1,1.078155518E0,6.916152954E0,5.978424072E0
9.768356595E1,1.944854736E0,4.833190918E0,6.768524170E0
9.778381619E1,-4.158325195E-1,3.832412720E0,7.671127319E0
9.788406643E1,2.095687866E0,6.499557495E0,4.659225464E0
9.798428616E1,2.043014526E0,5.721435547E0,8.748519897E0
9.808453640E1,1.269683838E0,6.566589355E0,8.832321167E0
9.818478665E1,1.066177368E0,6.942489624E0,6.588958740E0
9.828500638E1,1.504318237E0,6.200286865E0,6.584167480E0
9.838525662E1,1.523468018E0,6.655181885E0,7.321578979E0
9.848550686E1,2.643966675E0,6.202682495E0,6.500366211E0
9.858572659E1,2.969573975E0,6.133239746E0,6.660781860E0
9.868600735E1,7.477569580E-1,7.069381714E0,6.311218262E0
9.878625760E1,1.126037598E0,6.401397705E0,7.007934570E0
9.888647732E1,2.174697876E0,5.965652466E0,7.055816650E0
9.898672757E1,2.833099365E0,5.359924316E0,7.872238159E0
9.908697781E1,3.460388184E0,5.582580566E0,9.591278076E0
9.918716702E1,3.156326294E0,5.663986206E0,8.458816528E0
9.928741726E1,1.138015747E0,6.707855225E0,7.759719849E0
9.938766751E1,1.023086548E0,6.841934204E0,5.640853882E0
9.948788723E1,1.149978638E0,6.408584595E0,6.900192261E0
9.958813748E1,1.789230347E0,6.070999146E0,7.798019409E0
9.968838772E1,1.983169556E0,5.965652466E0,7.874633789E0
9.978863797E1,4.808319092E0,5.486816406E0,5.695907593E0
9.988888821E1,3.982315063E0,6.233795166E0,4.965682983E0
9.998910794E1,2.665512085E0,6.633636475E0,6.931320190E0
1.000893277E2,2.335113525E0,6.782073975E0,6.993576050E0
1.001895779E2,2.584106445E0,5.989593506E0,6.672744751E0
1.002898282E2,3.457992554E0,5.462860107E0,7.374252319E0
1.003900784E2,2.620025635E0,6.296051025E0,5.937728882E0
1.004902981E2,3.218566895E0,7.344711304E0,3.045532227E0
