"Time (s)","Gyroscope x (rad/s)","Gyroscope y (rad/s)","Gyroscope z (rad/s)"
1.736092360E-1,1.077270508E-2,-2.177429199E-2,-1.524353027E-2
2.738594800E-1,1.190185547E-3,5.920410156E-3,6.057739258E-3
3.740792070E-1,-4.150390625E-3,8.056640625E-3,1.031494141E-2
4.743294510E-1,1.220703125E-4,2.716064453E-3,-4.592895508E-3
5.745491780E-1,6.515502930E-3,-1.005554199E-2,-1.417541504E-2
6.747994220E-1,1.716613770E-2,-1.432800293E-2,1.351928711E-2
7.750191480E-1,-1.692199707E-2,2.935791016E-2,7.324218750E-4
8.752388750E-1,-4.150390625E-3,-1.325988770E-2,-3.524780273E-3
9.755056800E-1,-3.082275391E-3,-6.866455078E-3,-9.918212891E-3
1.075725407E0,1.077270508E-2,-7.934570312E-3,1.138305664E-2
1.175975651E0,-3.082275391E-3,3.784179688E-3,1.351928711E-2
1.276195377E0,-9.475708008E-3,3.784179688E-3,-2.456665039E-3
1.376476139E0,4.379272461E-3,-9.002685547E-3,-1.950073242E-2
1.476726383E0,8.636474609E-3,-1.325988770E-2,1.458740234E-2
1.576946110E0,3.311157227E-3,5.920410156E-3,1.565551758E-2
1.677196354E0,-2.014160156E-3,6.988525391E-3,-4.592895508E-3
1.777416080E0,-1.052856445E-2,8.056640625E-3,-1.737976074E-2
1.877666325E0,1.823425293E-2,-1.112365723E-2,3.936767578E-3
1.977886051E0,-4.150390625E-3,1.443481445E-2,1.031494141E-2
2.078105778E0,-1.266479492E-2,1.663208008E-3,-9.918212891E-3
2.178356022E0,9.704589844E-3,-1.219177246E-2,-1.950073242E-2
2.278575748E0,4.379272461E-3,5.950927734E-4,1.245117188E-2
2.378825993E0,-5.203247070E-3,1.231384277E-2,7.125854492E-3
2.479076237E0,-6.271362305E-3,1.663208008E-3,-5.661010742E-3
2.579295963E0,-9.460449219E-4,-1.005554199E-2,-1.417541504E-2
2.679546207E0,8.636474609E-3,-1.432800293E-2,2.310180664E-2
2.779796452E0,-8.407592773E-3,1.870727539E-2,-2.456665039E-3
2.880016178E0,-9.475708008E-3,-1.432800293E-2,-3.356933594E-4
2.980266422E0,4.379272461E-3,8.056640625E-3,-2.589416504E-2
3.080486149E0,8.636474609E-3,-1.751708984E-2,2.416992188E-2
3.180736393E0,1.190185547E-3,3.784179688E-3,7.125854492E-3
3.280986637E0,-9.475708008E-3,5.920410156E-3,-4.592895508E-3
3.381206364E0,9.704589844E-3,-1.219177246E-2,-9.918212891E-3
3.481456608E0,8.636474609E-3,5.920410156E-3,1.138305664E-2
3.581676334E0,7.568359375E-3,-1.005554199E-2,1.458740234E-2
3.681926578E0,9.704589844E-3,-1.858520508E-2,-6.729125977E-3
3.782146305E0,4.379272461E-3,-1.541137695E-3,-3.524780273E-3
3.882396549E0,-1.052856445E-2,1.017761230E-2,7.324218750E-4
3.982646793E0,1.220703125E-4,2.716064453E-3,-3.356933594E-4
4.082897037E0,1.220703125E-4,5.950927734E-4,-3.356933594E-4
4.183116764E0,1.220703125E-4,-3.662109375E-3,8.193969727E-3
4.283367008E0,4.379272461E-3,-9.002685547E-3,-1.403808594E-3
4.383586735E0,-7.339477539E-3,4.852294922E-3,-3.356933594E-4
4.483836979E0,3.311157227E-3,-2.609252930E-3,6.057739258E-3
4.584056705E0,6.515502930E-3,-9.002685547E-3,-3.356933594E-4
4.684306950E0,5.447387695E-3,-5.798339844E-3,7.324218750E-4
4.784557194E0,1.220703125E-4,1.338195801E-2,-1.403808594E-3
4.884776920E0,9.704589844E-3,-4.730224609E-4,-5.661010742E-3
4.985027164E0,1.502990723E-2,-1.219177246E-2,-3.524780273E-3
5.085246891E0,5.447387695E-3,-1.005554199E-2,1.138305664E-2
5.185497135E0,-4.150390625E-3,2.716064453E-3,2.630615234E-2
5.285747379E0,-9.475708008E-3,-4.730224609E-3,-1.310729980E-2
5.385967106E0,1.184082031E-2,-1.112365723E-2,-1.098632812E-2
5.486217350E0,4.379272461E-3,5.920410156E-3,1.670837402E-2
5.586437077E0,-9.460449219E-4,1.663208008E-3,6.057739258E-3
5.686687321E0,1.190185547E-3,-1.541137695E-3,-3.524780273E-3
5.786907047E0,-6.271362305E-3,5.920410156E-3,-1.524353027E-2
5.887157291E0,1.289367676E-2,-1.538085938E-2,7.125854492E-3
5.987377018E0,-8.407592773E-3,1.976013184E-2,1.138305664E-2
6.087657780E0,-5.203247070E-3,5.950927734E-4,-1.310729980E-2
6.187908024E0,1.396179199E-2,-1.858520508E-2,-1.524353027E-2
6.288127750E0,-9.460449219E-4,8.056640625E-3,1.991271973E-2
6.388347477E0,-7.339477539E-3,1.231384277E-2,9.262084961E-3
6.488597721E0,2.243041992E-3,-7.934570312E-3,-1.737976074E-2
6.588817448E0,6.515502930E-3,-1.005554199E-2,-1.403808594E-3
6.689067692E0,1.220703125E-4,3.784179688E-3,1.031494141E-2
6.789317936E0,-1.052856445E-2,1.870727539E-2,7.324218750E-4
6.889537662E0,1.220703125E-4,-1.219177246E-2,-2.377319336E-2
6.989787907E0,1.396179199E-2,-9.002685547E-3,3.936767578E-3
7.090007633E0,1.190185547E-3,8.056640625E-3,1.670837402E-2
7.190257877E0,-2.014160156E-3,-1.541137695E-3,3.936767578E-3
7.290508121E0,-4.150390625E-3,2.716064453E-3,-2.270507812E-2
7.390727848E0,1.609802246E-2,-1.751708984E-2,8.193969727E-3
7.490978092E0,-6.271362305E-3,2.403259277E-2,8.193969727E-3
7.591197819E0,-9.460449219E-4,4.852294922E-3,-7.781982422E-3
7.691448063E0,3.311157227E-3,-9.002685547E-3,-1.844787598E-2
7.791698307E0,9.704589844E-3,5.950927734E-4,8.193969727E-3
7.891918034E0,-6.271362305E-3,9.109497070E-3,1.351928711E-2
7.992168278E0,1.190185547E-3,1.231384277E-2,-4.592895508E-3
8.092388004E0,8.636474609E-3,-1.325988770E-2,-1.950073242E-2
8.192638248E0,6.515502930E-3,-6.866455078E-3,1.670837402E-2
8.292888493E0,-9.475708008E-3,2.403259277E-2,7.125854492E-3
8.393108219E0,3.311157227E-3,-1.325988770E-2,-1.310729980E-2
8.493327946E0,1.190185547E-3,-2.609252930E-3,-1.737976074E-2
8.593608707E0,5.447387695E-3,1.663208008E-3,7.125854492E-3
8.693828434E0,-8.407592773E-3,1.017761230E-2,1.031494141E-2
8.794048161E0,-6.271362305E-3,5.950927734E-4,-1.205444336E-2
8.894298405E0,1.289367676E-2,-1.644897461E-2,-9.918212891E-3
8.994548649E0,2.243041992E-3,5.950927734E-4,1.670837402E-2
9.094798893E0,-1.159667969E-2,9.109497070E-3,1.245117188E-2
9.195018619E0,-4.150390625E-3,-6.866455078E-3,-9.918212891E-3
9.295238346E0,1.220703125E-4,-2.609252930E-3,-7.781982422E-3
9.395488590E0,7.568359375E-3,-6.866455078E-3,4.989624023E-3
9.495738834E0,-9.475708008E-3,1.017761230E-2,1.458740234E-2
9.595958561E0,-8.407592773E-3,2.716064453E-3,-2.270507812E-2
9.696208805E0,9.704589844E-3,-9.002685547E-3,-1.417541504E-2
9.796428532E0,4.060363770E-2,-2.070617676E-2,-5.039978027E-2
9.896678776E0,-2.012634277E-2,3.468322754E-2,-1.098632812E-2
9.996929020E0,-4.150390625E-3,-1.538085938E-2,-1.524353027E-2
1.009714875E1,5.447387695E-3,-4.730224609E-3,-2.456665039E-3
1.019739899E1,2.243041992E-3,5.920410156E-3,6.057739258E-3
1.029764924E1,-7.339477539E-3,3.784179688E-3,-3.356933594E-4
1.039786896E1,-6.271362305E-3,-4.730224609E-3,-9.918212891E-3
1.049811920E1,1.289367676E-2,1.663208008E-3,3.936767578E-3
1.059833893E1,7.568359375E-3,-3.662109375E-3,1.138305664E-2
1.069858918E1,-1.373291016E-2,1.443481445E-2,-2.456665039E-3
1.079880890E1,-9.460449219E-4,-1.432800293E-2,-2.056884766E-2
1.089905915E1,-1.373291016E-2,1.017761230E-2,1.031494141E-2
1.099924640E1,-6.271362305E-3,1.663208008E-3,-4.592895508E-3
1.109946613E1,-2.014160156E-3,-4.730224609E-4,7.324218750E-4
1.119971637E1,-9.460449219E-4,-1.541137695E-3,-3.356933594E-4
1.129993610E1,1.220703125E-4,3.784179688E-3,-3.524780273E-3
1.140018634E1,2.243041992E-3,-1.541137695E-3,7.125854492E-3
1.150043659E1,1.220703125E-4,-4.730224609E-4,1.670837402E-2
1.160065631E1,8.636474609E-3,-6.866455078E-3,1.031494141E-2
1.170090656E1,-3.082275391E-3,9.109497070E-3,-1.098632812E-2
1.180112628E1,6.515502930E-3,5.920410156E-3,-9.918212891E-3
1.190137653E1,1.077270508E-2,1.443481445E-2,-5.039978027E-2
1.200159625E1,2.243041992E-3,1.443481445E-2,-3.974914551E-2
1.210184650E1,-1.159667969E-2,1.976013184E-2,-1.205444336E-2
1.220209674E1,-1.373291016E-2,1.663208008E-3,-8.850097656E-3
1.230231647E1,1.396179199E-2,-1.112365723E-2,-1.844787598E-2
1.240256671E1,2.243041992E-3,-1.541137695E-3,8.193969727E-3
1.250281696E1,-6.271362305E-3,1.870727539E-2,3.936767578E-3
1.260306720E1,-3.082275391E-3,-4.730224609E-3,-1.310729980E-2
1.270328693E1,2.035522461E-2,-2.709960938E-2,9.262084961E-3
1.280350665E1,1.190185547E-3,1.338195801E-2,1.884460449E-2
1.290375690E1,-9.460449219E-4,-2.070617676E-2,-3.356933594E-4
1.300397662E1,1.184082031E-2,2.716064453E-3,-8.850097656E-3
1.310422687E1,-8.407592773E-3,8.056640625E-3,1.458740234E-2
1.320447711E1,-8.407592773E-3,5.950927734E-4,-2.456665039E-3
1.330469684E1,3.311157227E-3,-3.662109375E-3,-2.056884766E-2
1.340494708E1,9.704589844E-3,-1.219177246E-2,1.670837402E-2
1.350519733E1,-8.407592773E-3,2.189636230E-2,4.989624023E-3
1.360541705E1,-3.082275391E-3,-3.662109375E-3,-2.056884766E-2
1.370569782E1,1.502990723E-2,-1.644897461E-2,4.989624023E-3
1.380591754E1,-9.460449219E-4,5.920410156E-3,1.458740234E-2
1.390613727E1,-8.407592773E-3,8.056640625E-3,3.936767578E-3
1.400638751E1,-2.014160156E-3,-1.432800293E-2,-5.661010742E-3
1.410663776E1,9.704589844E-3,-4.730224609E-3,-1.524353027E-2
1.420685748E1,1.220703125E-4,6.988525391E-3,1.670837402E-2
1.430710773E1,-9.475708008E-3,1.017761230E-2,6.057739258E-3
1.440732745E1,1.184082031E-2,-6.866455078E-3,-1.844787598E-2
1.450757770E1,1.609802246E-2,-1.325988770E-2,7.125854492E-3
1.460779742E1,-8.407592773E-3,1.976013184E-2,6.057739258E-3
1.470804767E1,1.190185547E-3,-5.798339844E-3,-5.661010742E-3
1.480829791E1,1.502990723E-2,-3.562927246E-2,1.565551758E-2
1.490851764E1,-1.586914062E-2,2.296447754E-2,1.031494141E-2
1.500876788E1,-9.475708008E-3,5.950927734E-4,-1.950073242E-2
1.510901813E1,1.077270508E-2,-1.325988770E-2,-1.098632812E-2
1.520923785E1,1.289367676E-2,5.950927734E-4,1.565551758E-2
1.530948810E1,-6.271362305E-3,8.056640625E-3,7.324218750E-4
1.540973834E1,-1.159667969E-2,-1.541137695E-3,-1.098632812E-2
1.550995807E1,7.568359375E-3,-1.644897461E-2,-1.205444336E-2
1.561020831E1,5.447387695E-3,1.663208008E-3,1.351928711E-2
1.571042804E1,-1.052856445E-2,1.231384277E-2,1.138305664E-2
1.581067828E1,1.220703125E-4,-6.866455078E-3,-1.098632812E-2
1.591092853E1,1.289367676E-2,-5.798339844E-3,-4.592895508E-3
1.601114825E1,1.289367676E-2,5.950927734E-4,1.884460449E-2
1.611139850E1,-8.407592773E-3,1.124572754E-2,-1.403808594E-3
1.621161823E1,-4.150390625E-3,-4.730224609E-3,-1.310729980E-2
1.631186847E1,1.823425293E-2,-1.432800293E-2,3.936767578E-3
1.641208820E1,1.220703125E-4,1.124572754E-2,7.125854492E-3
1.651233844E1,-1.586914062E-2,3.784179688E-3,-1.403808594E-3
1.661258868E1,-6.271362305E-3,-4.730224609E-3,-1.950073242E-2
1.671280841E1,1.077270508E-2,-1.541137695E-3,-7.781982422E-3
1.681305866E1,3.311157227E-3,-4.730224609E-4,1.565551758E-2
1.691330890E1,-1.480102539E-2,1.124572754E-2,-5.661010742E-3
1.701352863E1,1.220703125E-4,-1.112365723E-2,-8.850097656E-3
1.711377887E1,9.704589844E-3,-2.609252930E-3,1.800537109E-3
1.721399860E1,1.220703125E-4,1.443481445E-2,7.125854492E-3
1.731424884E1,-5.203247070E-3,5.950927734E-4,8.193969727E-3
1.741449909E1,-2.014160156E-3,-3.662109375E-3,-1.737976074E-2
1.751471881E1,1.396179199E-2,-1.432800293E-2,7.125854492E-3
1.761496906E1,-5.203247070E-3,1.870727539E-2,1.458740234E-2
1.771521930E1,-1.052856445E-2,3.784179688E-3,-1.417541504E-2
1.781543903E1,-9.460449219E-4,-1.219177246E-2,-7.781982422E-3
1.791565875E1,1.396179199E-2,-1.541137695E-3,4.989624023E-3
1.801593951E1,8.636474609E-3,5.920410156E-3,1.031494141E-2
1.811615924E1,-7.339477539E-3,1.663208008E-3,2.868652344E-3
1.821640948E1,4.379272461E-3,-1.325988770E-2,-2.163696289E-2
1.831662921E1,1.502990723E-2,-1.112365723E-2,1.458740234E-2
1.841687946E1,-2.014160156E-3,1.657104492E-2,1.991271973E-2
1.851709918E1,-3.082275391E-3,-1.541137695E-3,-1.310729980E-2
1.861734943E1,1.190185547E-3,-9.002685547E-3,-7.781982422E-3
1.871759967E1,8.636474609E-3,-4.730224609E-4,1.800537109E-3
1.881781940E1,-2.014160156E-3,1.338195801E-2,6.057739258E-3
1.891806964E1,-6.271362305E-3,-2.609252930E-3,-3.524780273E-3
1.901828937E1,1.077270508E-2,-1.965332031E-2,-1.417541504E-2
1.911857013E1,4.379272461E-3,6.988525391E-3,1.245117188E-2
1.921878986E1,-7.339477539E-3,9.109497070E-3,1.458740234E-2
1.931900958E1,-9.460449219E-4,-3.662109375E-3,-1.310729980E-2
1.941925983E1,3.311157227E-3,-1.112365723E-2,-7.781982422E-3
1.951951007E1,7.568359375E-3,5.950927734E-4,1.800537109E-3
1.961976032E1,-4.150390625E-3,1.870727539E-2,1.031494141E-2
1.971998004E1,-2.014160156E-3,-3.662109375E-3,3.936767578E-3
1.982019977E1,4.379272461E-3,-1.219177246E-2,-2.270507812E-2
1.992045001E1,1.396179199E-2,-4.730224609E-3,6.057739258E-3
2.002070026E1,-2.014160156E-3,1.231384277E-2,1.884460449E-2
2.012091998E1,-3.082275391E-3,4.852294922E-3,-7.781982422E-3
2.022117023E1,1.220703125E-4,-1.644897461E-2,-6.729125977E-3
2.032138995E1,6.515502930E-3,5.950927734E-4,-3.524780273E-3
2.042164020E1,-3.082275391E-3,2.296447754E-2,1.138305664E-2
2.052189044E1,-4.150390625E-3,-2.609252930E-3,2.868652344E-3
2.062211017E1,9.704589844E-3,-1.432800293E-2,-1.417541504E-2
2.072236041E1,6.515502930E-3,5.950927734E-4,7.324218750E-4
2.082261066E1,1.190185547E-3,1.550292969E-2,1.777648926E-2
2.092287281E1,1.220703125E-4,5.950927734E-4,-7.781982422E-3
2.102312305E1,1.190185547E-3,-1.325988770E-2,-1.205444336E-2
2.112334278E1,7.568359375E-3,-2.609252930E-3,-3.356933594E-4
2.122362354E1,-7.339477539E-3,2.403259277E-2,7.125854492E-3
2.132381275E1,-9.460449219E-4,-1.219177246E-2,-1.403808594E-3
2.142406299E1,3.311157227E-3,-1.325988770E-2,-2.056884766E-2
2.152431324E1,4.379272461E-3,4.852294922E-3,3.936767578E-3
2.162453296E1,-4.150390625E-3,1.231384277E-2,1.777648926E-2
2.172478321E1,-2.014160156E-3,5.950927734E-4,-1.205444336E-2
2.182503345E1,4.379272461E-3,-1.858520508E-2,-9.918212891E-3
2.192525318E1,5.447387695E-3,4.852294922E-3,8.193969727E-3
2.202550342E1,-6.271362305E-3,1.870727539E-2,9.262084961E-3
2.212572315E1,-2.014160156E-3,-1.005554199E-2,-3.356933594E-4
2.222597339E1,7.568359375E-3,-1.005554199E-2,-1.737976074E-2
2.232622364E1,4.379272461E-3,-4.730224609E-4,9.262084961E-3
2.242644336E1,-9.475708008E-3,2.082824707E-2,1.245117188E-2
2.252669361E1,1.220703125E-4,-5.798339844E-3,-1.844787598E-2
2.262694385E1,9.704589844E-3,-1.751708984E-2,-3.356933594E-4
2.272719410E1,1.220703125E-4,1.231384277E-2,1.245117188E-2
2.282741382E1,-5.203247070E-3,1.763916016E-2,-3.524780273E-3
2.292763355E1,-5.203247070E-3,-1.219177246E-2,6.057739258E-3
2.302788380E1,5.447387695E-3,-1.325988770E-2,-1.844787598E-2
2.312813404E1,3.311157227E-3,3.784179688E-3,8.193969727E-3
2.322835376E1,-6.271362305E-3,1.550292969E-2,1.458740234E-2
2.332860401E1,2.243041992E-3,-1.219177246E-2,-1.737976074E-2
2.342885425E1,4.379272461E-3,-9.002685547E-3,-1.205444336E-2
2.352907398E1,4.379272461E-3,8.056640625E-3,1.351928711E-2
2.362932422E1,-2.014160156E-3,1.443481445E-2,3.936767578E-3
2.372954395E1,-9.460449219E-4,-1.751708984E-2,-4.592895508E-3
2.382979420E1,6.515502930E-3,-4.730224609E-3,-2.270507812E-2
2.393001392E1,5.447387695E-3,1.231384277E-2,1.777648926E-2
2.403026417E1,-7.339477539E-3,1.231384277E-2,1.031494141E-2
2.413051441E1,3.311157227E-3,-2.177429199E-2,-1.737976074E-2
2.423073414E1,9.704589844E-3,-5.798339844E-3,-3.524780273E-3
2.433098438E1,-3.082275391E-3,4.852294922E-3,2.203369141E-2
2.443123463E1,-1.052856445E-2,1.763916016E-2,-4.592895508E-3
2.453145435E1,4.379272461E-3,-2.177429199E-2,-1.417541504E-2
2.463170460E1,5.447387695E-3,-4.730224609E-3,8.193969727E-3
2.473192432E1,-4.150390625E-3,2.082824707E-2,8.193969727E-3
2.483217457E1,1.220703125E-4,-5.798339844E-3,7.324218750E-4
2.493242481E1,3.311157227E-3,-1.432800293E-2,-1.524353027E-2
2.503264454E1,7.568359375E-3,2.716064453E-3,-1.403808594E-3
2.513289478E1,1.220703125E-4,1.550292969E-2,1.458740234E-2
2.523311451E1,-4.150390625E-3,1.663208008E-3,-5.661010742E-3
2.533336475E1,3.311157227E-3,-1.858520508E-2,-1.417541504E-2
2.543361500E1,7.568359375E-3,1.663208008E-3,2.868652344E-3
2.553386524E1,-2.014160156E-3,1.550292969E-2,1.245117188E-2
2.563408497E1,-2.014160156E-3,-1.541137695E-3,2.868652344E-3
2.573433521E1,-9.460449219E-4,-1.644897461E-2,-1.844787598E-2
2.583455494E1,9.704589844E-3,-7.934570312E-3,2.868652344E-3
2.593480518E1,-7.339477539E-3,2.403259277E-2,1.670837402E-2
2.603502491E1,1.220703125E-4,-2.609252930E-3,-1.098632812E-2
2.613527515E1,1.220703125E-4,-1.538085938E-2,-1.098632812E-2
2.623552540E1,6.515502930E-3,3.784179688E-3,2.868652344E-3
2.633574512E1,2.243041992E-3,1.124572754E-2,1.458740234E-2
2.643599537E1,-4.150390625E-3,-1.541137695E-3,2.868652344E-3
2.653624561E1,3.311157227E-3,-1.858520508E-2,-2.163696289E-2
2.663646534E1,7.568359375E-3,5.950927734E-4,3.936767578E-3
2.673671558E1,-6.271362305E-3,1.976013184E-2,1.670837402E-2
2.683696583E1,1.220703125E-4,-2.609252930E-3,-1.205444336E-2
2.693718555E1,1.220703125E-4,-1.538085938E-2,-9.918212891E-3
2.703743580E1,8.636474609E-3,4.852294922E-3,-2.456665039E-3
2.713765552E1,-9.460449219E-4,1.870727539E-2,1.351928711E-2
2.723790577E1,-3.082275391E-3,-4.730224609E-4,1.800537109E-3
2.733815601E1,2.243041992E-3,-1.751708984E-2,-2.589416504E-2
2.743837574E1,4.379272461E-3,2.716064453E-3,6.057739258E-3
2.753862598E1,1.220703125E-4,1.443481445E-2,2.416992188E-2
2.763887623E1,2.243041992E-3,-2.609252930E-3,-8.850097656E-3
2.773909595E1,3.311157227E-3,-1.538085938E-2,-8.850097656E-3
2.783934620E1,8.636474609E-3,-3.662109375E-3,3.936767578E-3
2.793956592E1,-6.271362305E-3,2.615356445E-2,1.138305664E-2
2.803981617E1,1.220703125E-4,-1.005554199E-2,-1.403808594E-3
2.814003589E1,4.379272461E-3,-1.432800293E-2,-1.844787598E-2
2.824028614E1,6.515502930E-3,5.920410156E-3,8.193969727E-3
2.834053638E1,-5.203247070E-3,1.231384277E-2,1.458740234E-2
2.844075611E1,-9.460449219E-4,-3.662109375E-3,-8.850097656E-3
2.854100635E1,2.243041992E-3,-1.538085938E-2,-1.205444336E-2
2.864122608E1,6.515502930E-3,2.716064453E-3,4.989624023E-3
2.874147632E1,-8.407592773E-3,2.296447754E-2,8.193969727E-3
2.884172657E1,1.220703125E-4,-1.538085938E-2,-1.403808594E-3
2.894197681E1,4.379272461E-3,-7.934570312E-3,-1.631164551E-2
2.904219654E1,5.447387695E-3,2.716064453E-3,9.262084961E-3
2.914241626E1,-6.271362305E-3,1.550292969E-2,1.245117188E-2
2.924266651E1,1.220703125E-4,-4.730224609E-3,-1.417541504E-2
2.934288624E1,3.311157227E-3,-1.538085938E-2,-7.781982422E-3
2.944316700E1,1.220703125E-4,5.920410156E-3,8.193969727E-3
2.954338672E1,-6.271362305E-3,1.976013184E-2,4.989624023E-3
2.964363697E1,-9.460449219E-4,-1.644897461E-2,7.324218750E-4
2.974385670E1,4.379272461E-3,-9.002685547E-3,-2.056884766E-2
2.984410694E1,2.243041992E-3,3.784179688E-3,1.031494141E-2
2.994432667E1,-7.339477539E-3,1.443481445E-2,1.245117188E-2
3.004457691E1,4.379272461E-3,-1.432800293E-2,-1.737976074E-2
3.014479664E1,1.190185547E-3,-1.005554199E-2,-9.918212891E-3
3.024504688E1,4.379272461E-3,1.017761230E-2,8.193969727E-3
3.034529713E1,-2.014160156E-3,1.657104492E-2,4.989624023E-3
3.044554737E1,1.220703125E-4,-1.219177246E-2,2.868652344E-3
3.054576710E1,4.379272461E-3,-1.005554199E-2,-1.844787598E-2
3.064601734E1,3.311157227E-3,1.663208008E-3,1.245117188E-2
3.074623707E1,-1.052856445E-2,1.657104492E-2,1.351928711E-2
3.084648731E1,4.379272461E-3,-1.538085938E-2,-1.950073242E-2
3.094672796E1,5.447387695E-3,-9.002685547E-3,-6.729125977E-3
3.104694768E1,1.190185547E-3,9.109497070E-3,1.351928711E-2
3.114719793E1,-5.203247070E-3,1.657104492E-2,1.800537109E-3
3.124741765E1,-3.082275391E-3,-1.538085938E-2,-3.356933594E-4
3.134766790E1,6.515502930E-3,-7.934570312E-3,-1.844787598E-2
3.144791814E1,6.515502930E-3,9.109497070E-3,1.670837402E-2
3.154813787E1,-6.271362305E-3,1.124572754E-2,1.351928711E-2
3.164838811E1,-9.460449219E-4,-7.934570312E-3,-1.844787598E-2
3.174863836E1,2.243041992E-3,-7.934570312E-3,-8.850097656E-3
3.184885808E1,4.379272461E-3,4.852294922E-3,1.138305664E-2
3.194910833E1,-7.339477539E-3,2.082824707E-2,2.868652344E-3
3.204932805E1,1.220703125E-4,-1.965332031E-2,-3.524780273E-3
3.214957830E1,4.379272461E-3,-6.866455078E-3,-1.417541504E-2
3.224982854E1,3.311157227E-3,1.017761230E-2,1.351928711E-2
3.235004827E1,-1.052856445E-2,2.189636230E-2,1.245117188E-2
3.245029851E1,8.636474609E-3,-5.798339844E-3,-1.737976074E-2
3.255054876E1,1.184082031E-2,-7.934570312E-3,-8.850097656E-3
3.265076848E1,6.515502930E-3,1.663208008E-3,1.031494141E-2
3.275101873E1,-2.014160156E-3,1.870727539E-2,1.800537109E-3
3.285123845E1,4.379272461E-3,-9.002685547E-3,-7.781982422E-3
3.295148870E1,1.396179199E-2,-4.730224609E-3,-2.056884766E-2
3.305170842E1,-3.082275391E-3,8.056640625E-3,8.193969727E-3
3.315195867E1,-6.271362305E-3,6.988525391E-3,6.057739258E-3
3.325220891E1,-1.799011230E-2,4.852294922E-3,-1.844787598E-2
3.335242864E1,-3.082275391E-3,-1.538085938E-2,-1.098632812E-2
3.345267888E1,6.515502930E-3,8.056640625E-3,7.125854492E-3
3.355292913E1,1.190185547E-3,9.109497070E-3,-3.524780273E-3
3.365314885E1,1.220703125E-4,-6.866455078E-3,-1.737976074E-2
3.375339910E1,5.447387695E-3,-1.541137695E-3,-7.781982422E-3
3.385364934E1,1.289367676E-2,1.763916016E-2,1.245117188E-2
3.395386907E1,2.142333984E-2,-5.798339844E-3,-2.456665039E-3
3.405411931E1,2.568054199E-2,3.784179688E-3,-7.781982422E-3
3.415436956E1,2.888488770E-2,-7.934570312E-3,6.057739258E-3
3.425458928E1,2.142333984E-2,-6.866455078E-3,-3.524780273E-3
3.435483953E1,-9.460449219E-4,8.056640625E-3,7.125854492E-3
3.445505925E1,8.636474609E-3,-4.730224609E-4,4.989624023E-3
3.455530950E1,-9.475708008E-3,3.784179688E-3,1.884460449E-2
3.465555974E1,8.636474609E-3,-2.070617676E-2,1.670837402E-2
3.475580999E1,-5.203247070E-3,1.017761230E-2,1.245117188E-2
3.485599920E1,-1.052856445E-2,-4.730224609E-4,1.991271973E-2
3.495624944E1,-7.339477539E-3,-1.432800293E-2,2.523803711E-2
3.505649968E1,-3.082275391E-3,9.109497070E-3,2.735900879E-2
3.515674993E1,-6.271362305E-3,-1.751708984E-2,5.506896973E-2
3.525696966E1,-2.119445801E-2,1.124572754E-2,3.056335449E-2
3.535718938E1,-1.586914062E-2,-1.219177246E-2,4.760742188E-2
3.545743962E1,-8.407592773E-3,1.870727539E-2,4.228210449E-2
3.555768987E1,1.609802246E-2,-4.730224609E-4,4.653930664E-2
3.565794011E1,1.502990723E-2,-1.541137695E-3,1.991271973E-2
3.575815984E1,4.379272461E-3,5.950927734E-4,4.867553711E-2
3.585841008E1,1.396179199E-2,5.950927734E-4,4.228210449E-2
3.595862981E1,2.355957031E-2,3.784179688E-3,5.825805664E-2
3.605888006E1,2.035522461E-2,1.550292969E-2,7.637023926E-2
3.615913030E1,3.314208984E-2,4.852294922E-3,7.743835449E-2
3.625941106E1,2.461242676E-2,-5.798339844E-3,8.062744141E-2
3.635960027E1,7.568359375E-3,-2.609252930E-3,9.020996094E-2
3.645982000E1,5.447387695E-3,6.988525391E-3,9.553527832E-2
3.656007024E1,-3.082275391E-3,1.663208008E-3,1.019287109E-1
3.666032048E1,-3.082275391E-3,-2.497863770E-2,1.242980957E-1
3.676054021E1,2.243041992E-3,-2.816772461E-2,7.637023926E-2
3.686079046E1,1.220703125E-4,-7.934570312E-3,6.784057617E-2
3.696104070E1,-4.150390625E-3,-4.730224609E-4,9.127807617E-2
3.706129094E1,1.289367676E-2,8.056640625E-3,3.588867188E-2
3.716154119E1,2.243041992E-3,1.870727539E-2,1.565551758E-2
3.726173040E1,6.515502930E-3,-5.798339844E-3,2.523803711E-2
3.736198064E1,5.447387695E-3,5.950927734E-4,-6.729125977E-3
3.746223089E1,2.243041992E-3,2.716064453E-3,-1.524353027E-2
3.756245061E1,-1.159667969E-2,2.189636230E-2,-5.661010742E-3
3.766270086E1,-5.203247070E-3,-1.541137695E-3,-2.163696289E-2
3.776295110E1,-5.203247070E-3,2.189636230E-2,-1.631164551E-2
3.786320134E1,3.311157227E-3,-2.497863770E-2,-8.850097656E-3
3.796345159E1,-9.475708008E-3,3.784179688E-3,-1.098632812E-2
3.806367132E1,4.379272461E-3,-1.005554199E-2,-2.270507812E-2
3.816392156E1,5.447387695E-3,2.716064453E-3,-1.524353027E-2
3.826417180E1,9.704589844E-3,1.124572754E-2,-1.098632812E-2
3.836439153E1,-1.052856445E-2,2.510070801E-2,-2.696228027E-2
3.846461126E1,8.636474609E-3,-2.604675293E-2,-3.228759766E-2
3.856486150E1,-9.460449219E-4,1.124572754E-2,-2.909851074E-2
3.866511175E1,8.636474609E-3,-1.858520508E-2,-9.918212891E-3
3.876536199E1,-1.373291016E-2,1.763916016E-2,-3.868103027E-2
3.886558172E1,1.396179199E-2,-1.325988770E-2,-4.507446289E-2
3.896583196E1,-6.271362305E-3,-1.644897461E-2,-2.482604980E-2
3.906605169E1,-1.373291016E-2,-9.002685547E-3,-2.270507812E-2
3.916630193E1,-6.271362305E-3,-3.662109375E-3,-5.146789551E-2
3.926655217E1,-1.692199707E-2,1.231384277E-2,-5.146789551E-2
3.936680242E1,-1.266479492E-2,-1.219177246E-2,-5.998229980E-2
3.946702214E1,-2.014160156E-3,1.663208008E-3,-9.727478027E-2
3.956727239E1,1.220703125E-4,-1.432800293E-2,-8.662414551E-2
3.966749212E1,-3.082275391E-3,9.109497070E-3,-8.981323242E-2
3.976774236E1,2.243041992E-3,-1.858520508E-2,-1.260375977E-1
3.986796209E1,-4.356384277E-2,-1.112365723E-2,-1.281585693E-1
3.996821233E1,-4.461669922E-2,-3.242492676E-2,-1.388092041E-1
4.006846258E1,-3.610229492E-2,-1.325988770E-2,-1.441345215E-1
4.016868230E1,-5.101013184E-2,2.716064453E-3,-1.601257324E-1
4.026893255E1,-4.675292969E-2,1.231384277E-2,-1.611785889E-1
4.036915227E1,2.243041992E-3,1.870727539E-2,-1.601257324E-1
4.046940252E1,3.633117676E-2,2.510070801E-2,-1.590576172E-1
4.056962224E1,2.461242676E-2,2.189636230E-2,-1.569213867E-1
4.066987249E1,4.379272461E-3,6.988525391E-3,-1.345520020E-1
4.077012273E1,-6.271362305E-3,-4.730224609E-3,-1.100463867E-1
4.087037298E1,-8.407592773E-3,-7.934570312E-3,-8.235168457E-2
4.097058968E1,-8.407592773E-3,1.550292969E-2,-8.128356934E-2
4.107083993E1,-5.203247070E-3,1.657104492E-2,-4.081726074E-2
4.117105965E1,-2.012634277E-2,1.763916016E-2,7.324218750E-4
4.127130990E1,-1.266479492E-2,-1.005554199E-2,6.057739258E-3
4.137156014E1,-6.271362305E-3,-2.609252930E-3,7.324218750E-4
4.147177987E1,8.636474609E-3,-4.730224609E-4,2.523803711E-2
4.157203011E1,1.077270508E-2,-2.609252930E-3,3.936767578E-3
4.167224984E1,1.716613770E-2,8.056640625E-3,-1.950073242E-2
4.177250008E1,1.289367676E-2,1.017761230E-2,2.868652344E-3
4.187275033E1,2.142333984E-2,-1.538085938E-2,6.057739258E-3
4.197297006E1,2.243041992E-3,2.403259277E-2,7.324218750E-4
4.207318978E1,1.716613770E-2,-5.798339844E-3,-3.356933594E-4
4.217347054E1,5.447387695E-3,8.056640625E-3,3.936767578E-3
4.227369027E1,1.077270508E-2,-3.662109375E-3,7.125854492E-3
4.237394051E1,1.220703125E-4,1.231384277E-2,-1.403808594E-3
4.247416024E1,3.311157227E-3,-3.662109375E-3,-5.661010742E-3
4.257441048E1,-4.150390625E-3,-1.005554199E-2,-3.335571289E-2
4.267466073E1,1.190185547E-3,-9.002685547E-3,-1.417541504E-2
4.277491097E1,7.568359375E-3,-6.866455078E-3,1.138305664E-2
4.287513070E1,3.311157227E-3,4.852294922E-3,4.989624023E-3
4.297538094E1,-5.203247070E-3,3.784179688E-3,7.125854492E-3
4.307560067E1,-9.475708008E-3,-7.934570312E-3,-2.589416504E-2
4.317585091E1,1.190185547E-3,-4.730224609E-4,-7.781982422E-3
4.327607064E1,5.551147461E-2,-1.325988770E-2,1.565551758E-2
4.337632089E1,4.911804199E-2,1.338195801E-2,-3.356933594E-4
4.347657113E1,1.184082031E-2,1.976013184E-2,1.245117188E-2
4.357679086E1,-2.012634277E-2,-1.112365723E-2,-1.310729980E-2
4.367704110E1,-9.475708008E-3,-2.284240723E-2,-1.098632812E-2
4.377726083E1,5.447387695E-3,-7.934570312E-3,1.138305664E-2
4.387751107E1,3.311157227E-3,2.403259277E-2,7.125854492E-3
4.397776131E1,1.220703125E-4,-1.541137695E-3,7.125854492E-3
4.407801156E1,-2.014160156E-3,-4.730224609E-4,-2.163696289E-2
4.417823128E1,5.447387695E-3,-6.866455078E-3,4.989624023E-3
4.427848153E1,-9.460449219E-4,6.988525391E-3,1.670837402E-2
4.437870126E1,1.220703125E-4,5.920410156E-3,-1.205444336E-2
4.447895150E1,5.447387695E-3,-1.219177246E-2,-6.729125977E-3
4.457917123E1,3.311157227E-3,5.950927734E-4,1.245117188E-2
4.467942147E1,-9.475708008E-3,1.657104492E-2,1.351928711E-2
4.477967172E1,-9.460449219E-4,-1.538085938E-2,8.193969727E-3
4.487989144E1,3.311157227E-3,2.716064453E-3,-2.056884766E-2
4.498014168E1,8.636474609E-3,-5.798339844E-3,1.245117188E-2
4.508039193E1,-4.150390625E-3,8.056640625E-3,1.245117188E-2
4.518061166E1,-2.014160156E-3,-2.609252930E-3,-2.482604980E-2
4.528086190E1,3.311157227E-3,-1.219177246E-2,-5.661010742E-3
4.538111214E1,4.379272461E-3,1.663208008E-3,1.138305664E-2
4.548133187E1,-4.150390625E-3,1.231384277E-2,-2.456665039E-3
4.558158212E1,1.220703125E-4,-1.112365723E-2,-8.850097656E-3
4.568183236E1,8.636474609E-3,-1.219177246E-2,1.800537109E-3
4.578205209E1,-1.159667969E-2,2.828979492E-2,6.057739258E-3
4.588230233E1,1.184082031E-2,-3.456115723E-2,-1.205444336E-2
4.598252206E1,-7.339477539E-3,2.296447754E-2,1.245117188E-2
4.608277230E1,-1.052856445E-2,9.109497070E-3,-7.781982422E-3
4.618302254E1,1.190185547E-3,-2.497863770E-2,1.800537109E-3
4.628324227E1,2.243041992E-3,1.870727539E-2,1.351928711E-2
4.638349252E1,1.190185547E-3,1.231384277E-2,1.800537109E-3
4.648371224E1,9.704589844E-3,-3.662109375E-3,9.262084961E-3
4.658396249E1,1.716613770E-2,-4.730224609E-3,7.324218750E-4
4.668421273E1,1.396179199E-2,-3.662109375E-3,2.868652344E-3
4.678443246E1,-3.082275391E-3,-9.002685547E-3,7.324218750E-4
4.688468270E1,-5.203247070E-3,-3.662109375E-3,-2.456665039E-3
4.698493295E1,5.447387695E-3,4.852294922E-3,-1.098632812E-2
4.708515267E1,9.704589844E-3,-9.002685547E-3,-1.403808594E-3
4.718537240E1,1.396179199E-2,5.950927734E-4,-2.456665039E-3
4.728562264E1,1.928710938E-2,-1.541137695E-3,1.800537109E-3
4.738584237E1,5.125427246E-2,5.920410156E-3,1.800537109E-3
4.748609261E1,3.527832031E-2,8.056640625E-3,-1.310729980E-2
4.758634286E1,1.928710938E-2,1.663208008E-3,-1.403808594E-3
4.768656258E1,-1.266479492E-2,-1.112365723E-2,-1.524353027E-2
4.778684335E1,2.249145508E-2,-5.798339844E-3,-1.098632812E-2
4.788706307E1,7.568359375E-3,-2.609252930E-3,-1.737976074E-2
4.798728280E1,3.311157227E-3,2.716064453E-3,-1.737976074E-2
4.808756356E1,1.184082031E-2,1.017761230E-2,-2.056884766E-2
4.818778329E1,3.311157227E-3,-1.541137695E-3,-4.187011719E-2
4.828800301E1,1.190185547E-3,1.663208008E-3,-2.377319336E-2
4.838828378E1,2.142333984E-2,1.124572754E-2,-5.358886719E-2
4.848847298E1,-4.150390625E-3,-4.627990723E-2,-2.377319336E-2
4.858872323E1,3.311157227E-3,-1.965332031E-2,-7.809448242E-2
4.868897347E1,6.515502930E-3,-5.798339844E-3,-3.549194336E-2
4.878922372E1,-1.480102539E-2,-2.391052246E-2,-3.335571289E-2
4.888947396E1,4.060363770E-2,3.147888184E-2,-2.270507812E-2
4.898972420E1,3.314208984E-2,-2.923583984E-2,-5.891418457E-2
4.908994393E1,2.355957031E-2,1.870727539E-2,-5.891418457E-2
4.919019418E1,-9.475708008E-3,-4.734802246E-2,-3.356933594E-4
4.929041390E1,-6.805419922E-2,-3.662109375E-3,4.867553711E-2
4.939063363E1,-5.633544922E-2,-2.816772461E-2,8.808898926E-2
4.949088387E1,-2.224731445E-2,2.935791016E-2,-1.313629150E-1
4.959113412E1,3.314208984E-2,-2.497863770E-2,-5.998229980E-2
4.969138436E1,7.568359375E-3,-3.242492676E-2,2.310180664E-2
4.979163461E1,-3.291320801E-2,5.950927734E-4,-6.211853027E-2
4.989185433E1,-4.356384277E-2,1.017761230E-2,2.203369141E-2
4.999207406E1,-2.970886230E-2,5.950927734E-4,-3.228759766E-2
5.009232430E1,-2.119445801E-2,9.109497070E-3,-2.377319336E-2
5.019254403E1,-1.074676514E-1,6.983947754E-2,-5.146789551E-2
5.029279427E1,-4.142761230E-2,-4.095458984E-2,4.440307617E-2
5.039304452E1,3.311157227E-3,-1.879577637E-1,2.098083496E-2
5.049329476E1,1.694946289E-1,-5.053710938E-2,-5.786132812E-2
5.059351449E1,2.888488770E-2,-3.456115723E-2,3.056335449E-2
5.069376473E1,-7.765197754E-2,-3.349304199E-2,6.358337402E-2
5.079398446E1,-2.119445801E-2,-2.497863770E-2,2.630615234E-2
5.089423470E1,8.636474609E-3,1.550292969E-2,-2.803039551E-2
5.099450731E1,2.461242676E-2,5.920410156E-3,-2.163696289E-2
5.109475756E1,1.502990723E-2,-2.070617676E-2,1.458740234E-2
5.119497728E1,-2.438354492E-2,2.716064453E-3,-2.270507812E-2
5.129522753E1,1.190185547E-3,1.231384277E-2,-2.056884766E-2
5.139547777E1,5.447387695E-3,1.124572754E-2,-1.417541504E-2
5.149569750E1,2.243041992E-3,-6.866455078E-3,-9.918212891E-3
5.159594774E1,8.636474609E-3,-9.002685547E-3,-1.205444336E-2
5.169616747E1,-3.082275391E-3,-4.730224609E-4,-3.335571289E-2
5.179641771E1,-9.460449219E-4,-1.112365723E-2,-2.056884766E-2
5.189666796E1,2.243041992E-3,-3.030395508E-2,3.588867188E-2
5.199688768E1,2.035522461E-2,2.716064453E-3,-2.909851074E-2
5.209713793E1,8.636474609E-3,9.109497070E-3,-1.844787598E-2
5.219738817E1,-1.373291016E-2,-6.866455078E-3,-7.781982422E-3
5.229760790E1,-2.970886230E-2,-3.881835938E-2,1.800537109E-3
5.239788866E1,-4.150390625E-3,3.680419922E-2,-6.958007812E-2
5.249810839E1,4.698181152E-2,2.615356445E-2,1.351928711E-2
5.259832811E1,-2.119445801E-2,4.107666016E-2,-6.318664551E-2
5.269857836E1,-5.203247070E-3,-3.242492676E-2,-5.661010742E-3
5.279882860E1,-2.331542969E-2,5.950927734E-4,-2.456665039E-3
5.289904833E1,2.249145508E-2,1.870727539E-2,-1.098632812E-2
5.299932909E1,-3.082275391E-3,2.615356445E-2,2.735900879E-2
5.309957933E1,-1.383666992E-1,7.942199707E-2,-7.595825195E-2
5.319979906E1,-1.255798340E-1,-9.527587891E-2,1.253662109E-1
5.330004930E1,-2.757263184E-2,-2.497863770E-2,-1.473388672E-1
5.340029955E1,1.279449463E-1,3.468322754E-2,-1.686401367E-1
5.350051928E1,5.870056152E-2,-6.225585938E-2,-7.490539551E-2
5.360076952E1,-3.823852539E-2,-3.137207031E-2,1.317596436E-1
5.370101976E1,-1.052856445E-2,1.017761230E-2,3.936767578E-3
5.380123949E1,4.911804199E-2,7.196044922E-2,7.637023926E-2
5.390148973E1,9.066772461E-2,-1.634521484E-1,-5.661010742E-3
5.400173998E1,1.588439941E-1,7.835388184E-2,-1.205444336E-2
5.410195971E1,8.320617676E-2,-2.391052246E-2,9.873962402E-2
5.420220995E1,2.243041992E-3,2.828979492E-2,-8.448791504E-2
5.430242968E1,-2.651977539E-2,-3.669738770E-2,3.907775879E-2
5.440264940E1,-8.407592773E-3,-2.284240723E-2,1.884460449E-2
5.450289965E1,1.609802246E-2,-2.709960938E-2,2.842712402E-2
5.460314989E1,5.447387695E-3,2.082824707E-2,2.416992188E-2
5.470336962E1,-6.486511230E-2,1.902160645E-1,9.262084961E-3
5.480361986E1,1.928710938E-2,1.017761230E-2,-3.121948242E-2
5.490383959E1,3.633117676E-2,2.082824707E-2,-1.036682129E-1
5.500408983E1,-7.337951660E-2,-1.219177246E-1,1.807708740E-1
5.510434008E1,-2.651977539E-2,-7.934570312E-3,2.630615234E-2
5.520459032E1,9.704589844E-3,4.533386230E-2,4.121398926E-2
5.530484056E1,2.888488770E-2,1.124572754E-2,1.777648926E-2
5.540509081E1,6.515502930E-3,5.950927734E-4,1.991271973E-2
5.550531054E1,1.184082031E-2,3.575134277E-2,-7.781982422E-3
5.560553026E1,1.609802246E-2,3.042602539E-2,-1.205444336E-2
5.570578051E1,-3.082275391E-3,1.017761230E-2,1.245117188E-2
5.580606127E1,-3.717041016E-2,1.443481445E-2,3.482055664E-2
5.590628099E1,-1.266479492E-2,4.747009277E-2,3.482055664E-2
5.600653124E1,4.165649414E-2,1.976013184E-2,-2.909851074E-2
5.610678148E1,3.311157227E-3,-3.662109375E-3,3.482055664E-2
5.620697069E1,-1.799011230E-2,-5.479431152E-2,2.416992188E-2
5.630722094E1,-1.586914062E-2,-1.644897461E-2,4.653930664E-2
5.640747118E1,7.568359375E-3,-4.730224609E-3,1.565551758E-2
5.650769091E1,-8.407592773E-3,1.663208008E-3,1.245117188E-2
5.660794115E1,-1.586914062E-2,-2.497863770E-2,3.936767578E-3
5.670819139E1,1.184082031E-2,-5.053710938E-2,1.800537109E-3
5.680841112E1,1.289367676E-2,-2.604675293E-2,7.125854492E-3
5.690866136E1,5.447387695E-3,2.296447754E-2,-2.377319336E-2
5.700891161E1,4.379272461E-3,8.056640625E-3,-1.098632812E-2
5.710913134E1,4.379272461E-3,-1.538085938E-2,3.269958496E-2
5.720938158E1,-9.460449219E-4,-2.609252930E-3,2.868652344E-3
5.730960131E1,-1.480102539E-2,3.784179688E-3,-3.442382812E-2
5.740985155E1,-7.339477539E-3,5.920410156E-3,4.440307617E-2
5.751010180E1,2.249145508E-2,-3.562927246E-2,-4.187011719E-2
5.761035204E1,-6.271362305E-3,3.254699707E-2,-1.310729980E-2
5.771057177E1,-9.475708008E-3,2.189636230E-2,1.565551758E-2
5.781085253E1,1.502990723E-2,-4.730224609E-3,3.163146973E-2
5.791107225E1,3.311157227E-3,-3.988647461E-2,2.203369141E-2
5.801129198E1,2.035522461E-2,-2.709960938E-2,2.416992188E-2
5.811154222E1,-8.407592773E-3,-3.775024414E-2,1.245117188E-2
5.821179247E1,-1.373291016E-2,-2.816772461E-2,2.523803711E-2
5.831201220E1,-3.823852539E-2,3.147888184E-2,1.777648926E-2
5.841226244E1,4.060363770E-2,1.976013184E-2,-1.524353027E-2
5.851251268E1,1.609802246E-2,-4.521179199E-2,3.375244141E-2
5.861273241E1,-1.905822754E-2,-5.799865723E-2,3.056335449E-2
5.871298265E1,-8.407592773E-3,2.716064453E-3,9.262084961E-3
5.881323290E1,-9.460449219E-4,1.124572754E-2,2.098083496E-2
5.891348314E1,-5.203247070E-3,2.716064453E-3,2.735900879E-2
5.901370287E1,1.077270508E-2,-4.730224609E-3,8.193969727E-3
5.911395311E1,1.190185547E-3,3.784179688E-3,-2.589416504E-2
5.921417284E1,-1.480102539E-2,8.056640625E-3,-2.163696289E-2
5.931442308E1,9.704589844E-3,-3.242492676E-2,-3.868103027E-2
5.941470385E1,-5.203247070E-3,4.852294922E-3,-1.417541504E-2
5.951492357E1,8.636474609E-3,-5.798339844E-3,6.057739258E-3
5.961514330E1,-4.035949707E-2,4.000854492E-2,3.056335449E-2
5.971539354E1,-1.373291016E-2,3.468322754E-2,5.612182617E-2
5.981561327E1,7.574462891E-2,-5.693054199E-2,-6.729125977E-3
5.991586351E1,-5.101013184E-2,1.443481445E-2,3.802490234E-2
6.001611376E1,-1.480102539E-2,8.688354492E-2,-2.229766846E-1
6.011636400E1,6.829833984E-2,1.976013184E-2,-5.253601074E-2
6.021658373E1,-4.888916016E-2,4.107666016E-2,-1.558532715E-1
6.031683397E1,-1.052856445E-2,-3.562927246E-2,6.890869141E-2
6.041708422E1,3.527832031E-2,6.988525391E-3,-3.974914551E-2
6.051730394E1,-5.203247070E-3,-1.644897461E-2,1.360168457E-1
6.061755419E1,5.232238770E-2,-1.719818115E-1,1.892852783E-1
6.071777391E1,4.592895508E-2,-4.095458984E-2,-2.589416504E-2
6.081802416E1,-4.675292969E-2,6.988525391E-3,1.488037109E-1
6.091827440E1,-3.291320801E-2,2.722167969E-2,-6.423950195E-2
6.101848232E1,3.100585938E-2,-3.775024414E-2,4.228210449E-2
6.111870205E1,1.077270508E-2,1.763916016E-2,-5.039978027E-2
6.121895229E1,-2.331542969E-2,3.468322754E-2,-4.507446289E-2
6.131920254E1,-1.692199707E-2,-1.538085938E-2,-3.524780273E-3
6.141942226E1,3.421020508E-2,-7.183837891E-2,-2.456665039E-3
6.151967251E1,-8.404541016E-2,5.705261230E-2,-1.558532715E-1
6.161992275E1,-5.101013184E-2,6.988525391E-3,-1.505279541E-1
6.172014248E1,-3.077697754E-2,-4.309082031E-2,1.991271973E-2
6.182039272E1,2.142333984E-2,-4.414367676E-2,1.104583740E-1
6.192061245E1,-5.203247070E-3,1.497344971E-1,1.328277588E-1
6.202086269E1,-7.339477539E-3,1.007232666E-1,-7.383728027E-2
6.212111294E1,2.243041992E-3,5.705261230E-2,-6.744384766E-2
6.222136318E1,2.888488770E-2,5.950927734E-4,1.138305664E-2
6.232158291E1,1.396179199E-2,-4.730224609E-4,-1.631164551E-2
6.242183315E1,-2.545166016E-2,-2.177429199E-2,-6.729125977E-3
6.252208340E1,8.636474609E-3,-3.349304199E-2,3.269958496E-2
6.262230312E1,-2.014160156E-3,-1.005554199E-2,1.031494141E-2
6.272255337E1,-4.356384277E-2,3.042602539E-2,-2.909851074E-2
6.282280361E1,-1.266479492E-2,2.615356445E-2,-2.482604980E-2
6.292302334E1,7.568359375E-3,1.763916016E-2,-2.803039551E-2
6.302327358E1,-1.373291016E-2,-3.775024414E-2,3.056335449E-2
6.312352383E1,-7.339477539E-3,-6.866455078E-3,4.440307617E-2
6.322377407E1,2.142333984E-2,-1.644897461E-2,3.163146973E-2
6.332399380E1,2.781677246E-2,1.338195801E-2,-1.844787598E-2
6.342427456E1,-9.460449219E-4,-3.137207031E-2,9.262084961E-3
6.352449428E1,2.249145508E-2,-3.137207031E-2,1.670837402E-2
6.362474453E1,-1.480102539E-2,-1.005554199E-2,5.506896973E-2
6.372499477E1,-5.203247070E-3,2.615356445E-2,2.310180664E-2
6.382521450E1,-1.586914062E-2,2.403259277E-2,-2.056884766E-2
6.392546474E1,9.704589844E-3,-5.053710938E-2,3.163146973E-2
6.402568447E1,8.636474609E-3,-2.609252930E-3,-9.918212891E-3
6.412590420E1,4.060363770E-2,-6.013488770E-2,-3.335571289E-2
6.422615444E1,-9.475708008E-3,-6.866455078E-3,1.777648926E-2
6.432640468E1,-8.190917969E-2,-6.225585938E-2,9.980773926E-2
6.442662441E1,-8.616638184E-2,5.065917969E-2,2.310180664E-2
6.452690517E1,3.527832031E-2,8.367919922E-2,-5.146789551E-2
6.462712490E1,4.060363770E-2,3.787231445E-2,-2.163696289E-2
6.472734463E1,-4.150390625E-3,6.988525391E-3,5.186462402E-2
6.482759487E1,-8.407592773E-3,4.107666016E-2,1.138305664E-2
6.492787563E1,-8.407592773E-3,-1.219177246E-2,1.777648926E-2
6.502809536E1,2.243041992E-3,1.231384277E-2,-6.729125977E-3
6.512834560E1,-3.082275391E-3,3.784179688E-3,-7.781982422E-3
6.522856533E1,1.502990723E-2,1.443481445E-2,-3.524780273E-3
6.532881557E1,-7.339477539E-3,2.722167969E-2,-4.614257812E-2
6.542903530E1,7.568359375E-3,-1.112365723E-2,-2.803039551E-2
6.552928555E1,7.568359375E-3,-6.332397461E-2,-3.335571289E-2
6.562956631E1,3.207397461E-2,-1.304321289E-1,-3.524780273E-3
6.572978603E1,-1.692199707E-2,-4.095458984E-2,1.093902588E-1
6.583000576E1,-5.203247070E-3,-2.609252930E-3,-1.844787598E-2
6.593025600E1,1.184082031E-2,-3.775024414E-2,-2.589416504E-2
6.603047573E1,-1.159667969E-2,-2.604675293E-2,1.800537109E-3
6.613072598E1,-7.339477539E-3,-5.798339844E-3,-2.909851074E-2
6.623097622E1,7.568359375E-3,1.124572754E-2,-1.524353027E-2
6.633119594E1,-2.331542969E-2,1.231384277E-2,1.884460449E-2
6.643147671E1,-1.799011230E-2,5.920410156E-3,-2.056884766E-2
6.653169643E1,-1.052856445E-2,9.109497070E-3,7.324218750E-4
6.663191616E1,7.568359375E-3,3.784179688E-3,-1.403808594E-3
6.673216640E1,-8.407592773E-3,2.935791016E-2,-2.456665039E-3
6.683238613E1,1.190185547E-3,3.254699707E-2,-3.121948242E-2
6.693263638E1,-2.545166016E-2,8.049011230E-2,-8.128356934E-2
6.703288662E1,-2.651977539E-2,2.615356445E-2,-4.187011719E-2
6.713313686E1,-9.460449219E-4,-4.414367676E-2,3.588867188E-2
6.723335659E1,-1.799011230E-2,-1.325988770E-2,-3.335571289E-2
6.733360683E1,-2.970886230E-2,9.114074707E-2,-9.088134766E-2
6.743385708E1,4.804992676E-2,2.296447754E-2,-1.631164551E-2
6.753410732E1,3.953552246E-2,-5.799865723E-2,-1.950073242E-2
6.763432705E1,-3.082275391E-3,-7.504272461E-2,5.400085449E-2
6.773457729E1,-5.203247070E-3,-1.112365723E-2,5.079650879E-2
6.783482754E1,-4.035949707E-2,-1.541137695E-3,-1.737976074E-2
6.793504726E1,-3.823852539E-2,5.918884277E-2,-3.442382812E-2
6.803529751E1,-4.150390625E-3,4.852294922E-2,-2.270507812E-2
6.813554775E1,4.272460938E-2,-4.734802246E-2,-6.729125977E-3
6.823576748E1,6.402587891E-2,-4.414367676E-2,-4.614257812E-2
6.833601772E1,-3.929138184E-2,-3.137207031E-2,-3.442382812E-2
6.843623745E1,-1.096038818E-1,4.747009277E-2,-3.442382812E-2
6.853648769E1,-8.084106445E-2,7.409667969E-2,3.907775879E-2
6.863673794E1,1.609802246E-2,-6.971740723E-2,5.932617188E-2
6.873698818E1,1.928710938E-2,-6.866455078E-3,-5.358886719E-2
6.883720791E1,-2.970886230E-2,-6.866455078E-3,-3.121948242E-2
6.893745815E1,1.823425293E-2,-5.267333984E-2,1.800537109E-3
6.903770840E1,1.716613770E-2,-7.078552246E-2,5.079650879E-2
6.913792812E1,-9.460449219E-4,3.468322754E-2,-9.939575195E-2
6.923817837E1,1.823425293E-2,4.852294922E-3,-4.293823242E-2
6.933842861E1,1.716613770E-2,2.296447754E-2,-6.729125977E-3
6.943864834E1,1.823425293E-2,-5.586242676E-2,-2.696228027E-2
6.953889858E1,-1.042785645E-1,-7.717895508E-2,6.890869141E-2
6.963914883E1,-1.287841797E-1,-4.946899414E-2,2.734375000E-1
6.973936855E1,8.320617676E-2,-1.751708984E-2,-3.356933594E-4
6.983961880E1,5.657958984E-2,-2.284240723E-2,-1.718444824E-1
6.993986904E1,-3.291320801E-2,-1.005554199E-2,1.221771240E-1
7.004008877E1,-6.912231445E-2,2.403259277E-2,-3.356933594E-4
7.014033901E1,6.402587891E-2,9.432983398E-2,-1.737976074E-2
7.024058926E1,3.314208984E-2,-9.002685547E-3,1.777648926E-2
7.034080898E1,6.083679199E-2,7.942199707E-2,-1.771697998E-1
7.044105923E1,3.739929199E-2,-4.095458984E-2,-1.228332520E-1
7.054130947E1,-2.012634277E-2,-3.775024414E-2,-9.620666504E-2
7.064152920E1,-2.970886230E-2,1.338195801E-2,3.936767578E-3
7.074180996E1,-7.019042969E-2,4.852294922E-3,3.907775879E-2
7.084202968E1,2.035522461E-2,9.646606445E-2,-6.958007812E-2
7.094229148E1,-3.929138184E-2,1.049957275E-1,-9.834289551E-2
7.104251121E1,-2.012634277E-2,-4.521179199E-2,4.014587402E-2
7.114276145E1,-5.314636230E-2,2.828979492E-2,-2.909851074E-2
7.124301170E1,-1.480102539E-2,4.959106445E-2,-3.121948242E-2
7.134323142E1,-6.272888184E-2,-6.866455078E-3,-1.950073242E-2
7.144348167E1,2.249145508E-2,8.474731445E-2,-2.538604736E-1
7.154373191E1,9.918212891E-2,-1.261749268E-1,3.482055664E-2
7.164395164E1,-2.119445801E-2,-9.741210938E-2,6.997680664E-2
7.174420188E1,-2.970886230E-2,5.172729492E-2,1.242980957E-1
7.184445213E1,-6.593322754E-2,2.221679688E-1,-1.205444336E-2
7.194473289E1,-1.052856445E-2,4.214477539E-2,-6.958007812E-2
7.204492210E1,-2.864074707E-2,-5.586242676E-2,3.936767578E-3
7.214520286E1,-7.232666016E-2,-2.923583984E-2,-3.524780273E-3
7.224542259E1,-1.181335449E-1,2.082824707E-2,-8.662414551E-2
7.234564231E1,-3.823852539E-2,3.894042969E-2,-5.661010742E-3
7.244589256E1,-2.012634277E-2,-5.798339844E-3,7.423400879E-2
7.254614280E1,-1.159667969E-2,1.017761230E-2,-1.098632812E-2
7.264636253E1,6.515502930E-3,2.296447754E-2,4.547119141E-2
7.274661277E1,-2.864074707E-2,-9.101867676E-2,-3.356933594E-4
7.284686302E1,-1.480102539E-2,-1.069946289E-1,-8.850097656E-3
7.294711326E1,-4.568481445E-2,-2.604675293E-2,-8.874511719E-2
7.304733299E1,-2.545166016E-2,7.409667969E-2,1.351928711E-2
7.314758323E1,6.190490723E-2,5.172729492E-2,1.402893066E-1
7.324780296E1,1.609802246E-2,1.039276123E-1,-2.482604980E-2
7.334805320E1,5.447387695E-3,-4.627990723E-2,1.565551758E-2
7.344830345E1,-3.396606445E-2,-4.841613770E-2,5.612182617E-2
7.354852317E1,1.823425293E-2,5.950927734E-4,4.989624023E-3
7.364877342E1,2.142333984E-2,4.640197754E-2,-1.950073242E-2
7.374902366E1,-9.460449219E-4,-1.112365723E-2,1.565551758E-2
7.384924339E1,1.289367676E-2,-1.219177246E-2,2.310180664E-2
7.394949363E1,4.804992676E-2,-5.267333984E-2,3.907775879E-2
7.404974388E1,6.190490723E-2,-1.219177246E-2,-5.661010742E-3
7.414996360E1,-2.864074707E-2,-1.357574463E-1,1.338958740E-1
7.425021385E1,-1.096038818E-1,-9.208679199E-2,-8.981323242E-2
7.435046409E1,-4.461669922E-2,3.468322754E-2,1.245117188E-2
7.445071433E1,2.674865723E-2,-9.741210938E-2,-2.482604980E-2
7.455096458E1,6.616210938E-2,3.784179688E-3,-7.063293457E-2
7.465118430E1,1.928710938E-2,1.663208008E-3,-2.589416504E-2
7.475143455E1,8.636474609E-3,1.017761230E-2,-3.335571289E-2
7.485165428E1,9.704589844E-3,5.950927734E-4,-1.844787598E-2
7.495190452E1,3.311157227E-3,-1.965332031E-2,-3.228759766E-2
7.505215476E1,-9.475708008E-3,-4.730224609E-3,-3.356933594E-4
7.515237449E1,-3.077697754E-2,4.000854492E-2,-8.850097656E-3
7.525262474E1,-2.757263184E-2,3.254699707E-2,8.193969727E-3
7.535287498E1,6.515502930E-3,2.615356445E-2,-1.403808594E-3
7.545309470E1,4.379272461E-3,1.017761230E-2,-3.524780273E-3
7.555334495E1,3.311157227E-3,-1.112365723E-2,1.138305664E-2
7.565359519E1,1.220703125E-4,-1.541137695E-3,3.163146973E-2
7.575381492E1,-3.082275391E-3,2.403259277E-2,7.324218750E-4
7.585406516E1,-3.082275391E-3,2.935791016E-2,-4.592895508E-3
7.595431541E1,2.355957031E-2,3.361511230E-2,7.324218750E-4
7.605453514E1,2.461242676E-2,2.403259277E-2,7.125854492E-3
7.615478538E1,-4.150390625E-3,-5.798339844E-3,2.098083496E-2
7.625503562E1,-1.373291016E-2,5.920410156E-3,8.193969727E-3
7.635528587E1,2.243041992E-3,1.663208008E-3,7.125854492E-3
7.645550559E1,7.568359375E-3,-2.497863770E-2,2.416992188E-2
7.655575584E1,2.243041992E-3,-1.538085938E-2,3.695678711E-2
7.665597556E1,-4.150390625E-3,9.109497070E-3,3.695678711E-2
7.675622581E1,2.035522461E-2,1.124572754E-2,7.125854492E-3
7.685647605E1,2.355957031E-2,-2.609252930E-3,3.163146973E-2
7.695669578E1,2.461242676E-2,-4.730224609E-3,2.735900879E-2
7.705694602E1,-1.799011230E-2,-3.662109375E-3,1.138305664E-2
7.715719627E1,-9.475708008E-3,-1.644897461E-2,-1.403808594E-3
7.725744651E1,-2.970886230E-2,-1.538085938E-2,1.565551758E-2
7.735766624E1,5.447387695E-3,-1.325988770E-2,3.482055664E-2
7.745791648E1,9.704589844E-3,-3.662109375E-3,2.949523926E-2
7.755816673E1,1.502990723E-2,-1.541137695E-3,2.416992188E-2
7.765838645E1,7.568359375E-3,6.988525391E-3,1.565551758E-2
7.775863670E1,-1.052856445E-2,5.920410156E-3,2.310180664E-2
7.785888694E1,-2.757263184E-2,1.550292969E-2,-1.098632812E-2
7.795910667E1,-2.119445801E-2,-1.005554199E-2,3.056335449E-2
7.805935691E1,1.077270508E-2,2.828979492E-2,-8.850097656E-3
7.815960716E1,3.527832031E-2,-1.858520508E-2,3.269958496E-2
7.825982688E1,1.184082031E-2,9.109497070E-3,-9.918212891E-3
7.836010764E1,-1.799011230E-2,-2.923583984E-2,-2.270507812E-2
7.846032737E1,-9.475708008E-3,-5.586242676E-2,-3.442382812E-2
7.856054710E1,-7.339477539E-3,-4.730224609E-3,2.868652344E-3
7.866079734E1,9.704589844E-3,2.189636230E-2,-5.039978027E-2
7.876104759E1,5.447387695E-3,5.950927734E-4,2.098083496E-2
7.886126731E1,-8.407592773E-3,6.988525391E-3,2.868652344E-3
7.896151756E1,-8.407592773E-3,-2.497863770E-2,2.310180664E-2
7.906176780E1,-4.150390625E-3,-1.541137695E-3,1.777648926E-2
7.916198753E1,1.609802246E-2,4.852294922E-2,-2.696228027E-2
7.926223777E1,1.184082031E-2,-1.858520508E-2,-1.950073242E-2
7.936245750E1,1.823425293E-2,3.784179688E-3,-3.015136719E-2
7.946270774E1,-4.150390625E-3,1.231384277E-2,-3.121948242E-2
7.956295799E1,-3.184509277E-2,1.124572754E-2,-1.098632812E-2
7.966320823E1,-3.077697754E-2,8.056640625E-3,-2.482604980E-2
7.976342796E1,-6.271362305E-3,5.920410156E-3,-3.356933594E-4
7.986367820E1,2.249145508E-2,-3.137207031E-2,7.324218750E-4
7.996392845E1,-6.271362305E-3,1.976013184E-2,-2.803039551E-2
8.006414817E1,2.243041992E-3,-2.816772461E-2,-7.781982422E-3
8.016439842E1,-1.373291016E-2,-4.730224609E-4,7.324218750E-4
8.026464866E1,6.515502930E-3,1.870727539E-2,-2.696228027E-2
8.036486839E1,2.249145508E-2,-1.219177246E-2,-2.056884766E-2
8.046511863E1,-1.266479492E-2,-1.541137695E-3,-5.661010742E-3
8.056536888E1,-1.905822754E-2,-1.005554199E-2,-1.310729980E-2
8.066561912E1,2.243041992E-3,-1.112365723E-2,-5.786132812E-2
8.076583885E1,-2.012634277E-2,-4.730224609E-4,-1.205444336E-2
8.086608909E1,-1.692199707E-2,-1.219177246E-2,-6.744384766E-2
8.096634769E1,7.568359375E-3,1.657104492E-2,-2.909851074E-2
8.106656742E1,8.636474609E-3,1.231384277E-2,-1.417541504E-2
8.116681766E1,5.447387695E-3,5.950927734E-4,-4.400634766E-2
8.126706790E1,-1.480102539E-2,1.870727539E-2,-2.456665039E-3
8.136728763E1,4.379272461E-3,2.082824707E-2,2.310180664E-2
8.146753788E1,1.716613770E-2,-1.751708984E-2,-5.661010742E-3
8.156775760E1,-4.150390625E-3,-1.219177246E-2,3.163146973E-2
8.166800785E1,-1.692199707E-2,-9.002685547E-3,-8.850097656E-3
8.176825809E1,-4.356384277E-2,1.870727539E-2,3.269958496E-2
8.186850834E1,-2.757263184E-2,-1.005554199E-2,1.565551758E-2
8.196872806E1,-1.905822754E-2,-1.432800293E-2,-4.592895508E-3
8.206897830E1,1.609802246E-2,6.988525391E-3,-2.482604980E-2
8.216922855E1,3.207397461E-2,1.443481445E-2,-7.781982422E-3
8.226944828E1,1.609802246E-2,2.716064453E-3,9.262084961E-3
8.236969852E1,4.379272461E-3,-4.730224609E-4,-2.482604980E-2
8.246994876E1,-2.119445801E-2,-1.751708984E-2,-6.729125977E-3
8.257016849E1,-1.159667969E-2,-1.538085938E-2,-2.909851074E-2
8.267044925E1,-1.480102539E-2,8.056640625E-3,-3.761291504E-2
8.277066898E1,4.379272461E-3,5.950927734E-4,-1.403808594E-3
8.287088871E1,2.142333984E-2,1.124572754E-2,-1.310729980E-2
8.297113895E1,2.249145508E-2,-3.662109375E-3,-1.098632812E-2
8.307138919E1,2.243041992E-3,-5.798339844E-3,-2.056884766E-2
8.317160892E1,-1.373291016E-2,-1.005554199E-2,2.868652344E-3
8.327185917E1,-2.864074707E-2,2.722167969E-2,-9.918212891E-3
8.337207889E1,9.704589844E-3,-2.497863770E-2,-4.592895508E-3
8.347232914E1,3.311157227E-3,1.550292969E-2,-1.631164551E-2
8.357257938E1,5.447387695E-3,-1.112365723E-2,-1.950073242E-2
8.367282962E1,2.142333984E-2,-2.709960938E-2,7.324218750E-4
8.377304935E1,-9.460449219E-4,-9.002685547E-3,-1.524353027E-2
8.387329959E1,1.289367676E-2,-3.349304199E-2,1.800537109E-3
8.397354984E1,-2.970886230E-2,-2.177429199E-2,1.565551758E-2
8.407376956E1,-2.012634277E-2,-2.497863770E-2,3.695678711E-2
8.417401981E1,-3.823852539E-2,-2.284240723E-2,1.351928711E-2
8.427427005E1,1.184082031E-2,-1.858520508E-2,7.125854492E-3
8.437448978E1,-9.475708008E-3,-3.662109375E-3,2.310180664E-2
8.447474002E1,1.716613770E-2,-6.866455078E-3,1.565551758E-2
8.457499027E1,-4.142761230E-2,5.598449707E-2,-2.589416504E-2
8.467521000E1,-1.223907471E-1,1.316223145E-1,1.051330566E-1
8.477546024E1,5.764770508E-2,2.935791016E-2,-1.484069824E-1
8.487571048E1,-9.255981445E-2,6.556701660E-2,-1.844787598E-2
8.497593021E1,-4.142761230E-2,-1.858520508E-2,-2.056884766E-2
8.507618045E1,-6.379699707E-2,-5.799865723E-2,2.116546631E-1
8.517643070E1,5.657958984E-2,9.109497070E-3,-2.803039551E-2
8.527665042E1,1.077270508E-2,1.124572754E-2,2.203369141E-2
8.537690067E1,-8.407592773E-3,1.657104492E-2,1.800537109E-3
8.547715091E1,-1.480102539E-2,-3.662109375E-3,-4.507446289E-2
8.557737064E1,-1.692199707E-2,-6.866455078E-3,3.936767578E-3
8.567762088E1,2.243041992E-3,-4.730224609E-4,-3.228759766E-2
8.577787113E1,-8.407592773E-3,-1.112365723E-2,-4.592895508E-3
8.587812137E1,-6.271362305E-3,-1.858520508E-2,-1.417541504E-2
8.597834110E1,-1.905822754E-2,2.510070801E-2,-1.737976074E-2
8.607859134E1,6.515502930E-3,-1.219177246E-2,-2.696228027E-2
8.617881107E1,-1.692199707E-2,-4.730224609E-4,-5.661010742E-3
8.627906131E1,2.243041992E-3,-1.965332031E-2,7.324218750E-4
8.637931156E1,3.311157227E-3,1.976013184E-2,-1.310729980E-2
8.647953128E1,1.077270508E-2,-1.751708984E-2,-1.205444336E-2
8.657978153E1,-6.271362305E-3,3.680419922E-2,-1.844787598E-2
8.668003177E1,2.142333984E-2,-1.325988770E-2,-2.909851074E-2
8.678028202E1,-1.159667969E-2,2.935791016E-2,-1.737976074E-2
8.688050174E1,-8.407592773E-3,-4.730224609E-4,-1.631164551E-2
8.698075199E1,-8.407592773E-3,3.147888184E-2,-3.228759766E-2
8.708097171E1,-4.150390625E-3,-3.662109375E-3,-2.377319336E-2
8.718122196E1,-9.475708008E-3,2.615356445E-2,-1.844787598E-2
8.728147220E1,6.515502930E-3,3.784179688E-3,-4.507446289E-2
8.738172245E1,-8.407592773E-3,-4.730224609E-3,-2.456665039E-3
8.748194217E1,2.243041992E-3,-1.219177246E-2,-1.950073242E-2
8.758219242E1,5.447387695E-3,6.988525391E-3,-1.737976074E-2
8.768241214E1,6.515502930E-3,-1.325988770E-2,-6.318664551E-2
8.778266239E1,-1.373291016E-2,-1.325988770E-2,1.800537109E-3
8.788291263E1,-5.203247070E-3,1.870727539E-2,-2.056884766E-2
8.798316288E1,-1.052856445E-2,1.657104492E-2,-1.098632812E-2
8.808338260E1,-5.203247070E-3,-1.432800293E-2,-1.098632812E-2
8.818363285E1,-6.271362305E-3,5.279541016E-2,-2.696228027E-2
8.828388309E1,2.249145508E-2,3.784179688E-3,-1.524353027E-2
8.838410282E1,-4.150390625E-3,2.828979492E-2,-1.631164551E-2
8.848435306E1,2.243041992E-3,3.042602539E-2,-2.482604980E-2
8.858457279E1,1.716613770E-2,3.894042969E-2,-3.335571289E-2
8.868482303E1,-6.271362305E-3,1.976013184E-2,1.031494141E-2
8.878510379E1,-2.014160156E-3,-4.414367676E-2,-8.850097656E-3
8.888532352E1,1.609802246E-2,2.403259277E-2,-3.761291504E-2
8.898557376E1,5.447387695E-3,-2.284240723E-2,3.269958496E-2
8.908579349E1,-7.339477539E-3,1.763916016E-2,-3.549194336E-2
8.918604374E1,-1.266479492E-2,4.852294922E-3,1.565551758E-2
8.928626346E1,-1.586914062E-2,-5.798339844E-3,-3.524780273E-3
8.938651371E1,3.311157227E-3,1.443481445E-2,-5.661010742E-3
8.948676395E1,3.633117676E-2,-1.219177246E-2,-2.909851074E-2
8.958698368E1,2.243041992E-3,1.443481445E-2,2.868652344E-3
8.968723392E1,-1.266479492E-2,4.852294922E-3,-2.270507812E-2
8.978748417E1,-1.905822754E-2,3.787231445E-2,-2.696228027E-2
8.988773441E1,-2.014160156E-3,-3.562927246E-2,-1.417541504E-2
8.998798465E1,-1.052856445E-2,1.338195801E-2,-3.015136719E-2
9.008820438E1,-2.014160156E-3,-3.562927246E-2,-1.737976074E-2
9.018845462E1,1.502990723E-2,1.017761230E-2,-2.163696289E-2
9.028867435E1,3.739929199E-2,-2.609252930E-3,-7.781982422E-3
9.038892459E1,2.142333984E-2,2.082824707E-2,-7.781982422E-3
9.048917484E1,-4.356384277E-2,-1.858520508E-2,-1.205444336E-2
9.058939456E1,-3.610229492E-2,5.950927734E-4,-2.056884766E-2
9.068964481E1,6.616210938E-2,-2.070617676E-2,-3.228759766E-2
9.078989505E1,4.165649414E-2,5.065917969E-2,-4.507446289E-2
9.089011478E1,1.190185547E-3,1.657104492E-2,-3.442382812E-2
9.099042019E1,-2.331542969E-2,2.189636230E-2,-4.592895508E-3
9.109067044E1,-1.799011230E-2,1.338195801E-2,-4.400634766E-2
9.119089016E1,-2.864074707E-2,9.109497070E-3,6.057739258E-3
9.129114041E1,1.220703125E-4,-1.541137695E-3,-3.335571289E-2
9.139139065E1,7.568359375E-3,1.870727539E-2,-2.803039551E-2
9.149161038E1,1.502990723E-2,-4.627990723E-2,-2.803039551E-2
9.159186062E1,-6.271362305E-3,3.680419922E-2,-4.719543457E-2
9.169211087E1,-6.271362305E-3,-4.946899414E-2,-3.121948242E-2
9.179233059E1,4.379272461E-3,3.784179688E-3,-4.293823242E-2
9.189258084E1,4.379272461E-3,-1.541137695E-3,-5.039978027E-2
9.199283108E1,-1.159667969E-2,5.920410156E-3,-1.205444336E-2
9.209305081E1,1.190185547E-3,6.988525391E-3,-2.270507812E-2
9.219330105E1,1.716613770E-2,3.784179688E-3,-5.891418457E-2
9.229355130E1,-4.150390625E-3,2.296447754E-2,-6.744384766E-2
9.239383206E1,-7.339477539E-3,-1.325988770E-2,-4.293823242E-2
9.249402127E1,-2.012634277E-2,4.852294922E-3,-2.482604980E-2
9.259427151E1,-1.052856445E-2,-3.662109375E-3,-3.228759766E-2
9.269452176E1,-2.014160156E-3,2.082824707E-2,-4.400634766E-2
9.279474148E1,4.379272461E-3,-6.866455078E-3,-3.335571289E-2
9.289499173E1,1.190185547E-3,3.784179688E-3,-4.614257812E-2
9.299521145E1,1.077270508E-2,4.214477539E-2,-5.786132812E-2
9.309546170E1,2.243041992E-3,-1.112365723E-2,-1.737976074E-2
9.319571194E1,-1.799011230E-2,1.657104492E-2,-2.803039551E-2
9.329596219E1,5.447387695E-3,-7.934570312E-3,-4.293823242E-2
9.339621243E1,2.993774414E-2,-4.521179199E-2,-1.098632812E-2
9.349643216E1,1.502990723E-2,3.468322754E-2,-8.767700195E-2
9.359668240E1,3.314208984E-2,-9.002685547E-3,-2.377319336E-2
9.369690213E1,2.674865723E-2,2.510070801E-2,-4.187011719E-2
9.379715237E1,2.243041992E-3,-2.070617676E-2,1.031494141E-2
9.389740262E1,-2.012634277E-2,-4.730224609E-4,-4.826354980E-2
9.399762234E1,-2.757263184E-2,2.935791016E-2,-2.909851074E-2
9.409787259E1,-2.014160156E-3,4.852294922E-3,-2.270507812E-2
9.419812283E1,9.704589844E-3,-9.002685547E-3,-4.187011719E-2
9.429837307E1,-1.052856445E-2,-1.751708984E-2,-2.270507812E-2
9.439859280E1,-6.271362305E-3,-1.219177246E-2,-3.761291504E-2
9.449884304E1,5.447387695E-3,-9.002685547E-3,-2.270507812E-2
9.459909329E1,1.823425293E-2,-3.242492676E-2,-2.589416504E-2
9.469931302E1,1.184082031E-2,-2.177429199E-2,-3.761291504E-2
9.479956326E1,6.515502930E-3,1.976013184E-2,-8.850097656E-3
9.489981350E1,-2.014160156E-3,-4.730224609E-3,3.375244141E-2
9.500003323E1,1.823425293E-2,1.550292969E-2,-7.702636719E-2
9.510028347E1,1.077270508E-2,2.189636230E-2,-8.850097656E-3
9.520053372E1,2.355957031E-2,-2.391052246E-2,-2.456665039E-3
9.530075345E1,1.220703125E-4,8.056640625E-3,-2.589416504E-2
9.540100369E1,-4.249572754E-2,-3.030395508E-2,-3.442382812E-2
9.550122342E1,1.823425293E-2,1.017761230E-2,-8.128356934E-2
9.560147366E1,1.609802246E-2,5.950927734E-4,-3.121948242E-2
9.570172390E1,2.461242676E-2,-3.662109375E-3,-3.654479980E-2
9.580197415E1,1.609802246E-2,1.443481445E-2,-4.081726074E-2
9.590219388E1,-9.863128662E-1,4.899749756E0,1.182113647E0
9.600244412E1,3.410034180E-1,1.899963379E0,-3.827667236E-1
9.610269436E1,-1.831054688E-1,7.931518555E-1,4.653930664E-2
9.620291409E1,1.220703125E-4,1.231384277E-2,-1.737976074E-2
9.630316433E1,-2.171936035E-1,-4.990234375E-1,1.413421631E-1
9.640341458E1,7.010650635E-1,-4.617309570E-1,-1.111145020E-1
9.650366482E1,1.624649048E0,1.365188599E0,-1.835632324E-1
9.660388455E1,1.544754028E0,1.567596436E0,5.227203369E-1
9.670413479E1,5.965591431E0,-6.982223511E0,-2.762298584E-1
9.680435452E1,-2.573562622E0,-2.127807617E0,-5.553283691E-1
9.690460476E1,2.259536743E0,-1.172256470E0,-2.164947510E0
9.700485501E1,5.652404785E0,-8.558807373E-1,-2.337524414E0
9.710507473E1,5.147476196E0,-5.608062744E-1,-1.883712769E0
9.720532498E1,-9.405059814E-1,2.530670166E-1,1.828918457E-1
9.730557522E1,-1.852371216E0,1.096755981E0,-4.583892822E-1
9.740579495E1,-2.647064209E0,4.128570557E-1,-4.935455322E-1
9.750604519E1,-2.226287842E0,6.525268555E-1,9.626617432E-1
9.760629544E1,-1.161026001E0,2.626495361E-1,1.166137695E0
9.770654568E1,6.328887939E-1,-6.865081787E-1,7.144622803E-1
9.780676541E1,5.785522461E-1,-5.821075439E-1,9.541473389E-1
9.790701565E1,-1.056625366E0,2.722320557E-1,1.062805176E0
9.800723538E1,8.406066895E-1,7.771759033E-1,7.240447998E-1
9.810748562E1,2.078399658E-1,1.593170166E-1,4.087371826E-1
9.820773587E1,-2.949676514E-1,-5.064697266E-1,3.820953369E-1
9.830795559E1,-2.119445801E-2,-2.071380615E-1,2.862243652E-1
9.840820584E1,4.165649414E-2,-7.823181152E-2,1.424102783E-1
9.850845608E1,-6.593322754E-2,1.103210449E-1,1.360168457E-1
9.860867581E1,5.337524414E-2,2.818145752E-1,-5.146789551E-2
9.870895657E1,-1.078994751E0,-1.123199463E-1,-3.305664062E-1
9.880917630E1,3.761596680E-1,5.087280273E-1,-2.133789062E-1
9.890945706E1,2.781677246E-2,1.337432861E-1,-1.473388672E-1
9.900967679E1,1.822814941E-1,-4.798431396E-1,1.991271973E-2
9.910992703E1,-2.225189209E-1,-9.240570068E-1,-2.815551758E-1
9.921014676E1,-1.586914062E-2,6.024169922E-2,-8.235168457E-2
9.931036648E1,4.528503418E-1,9.635925293E-1,1.850280762E-1
9.941061673E1,-3.929138184E-2,-3.349304199E-2,1.242980957E-1
9.951086697E1,-1.756439209E-1,-3.200531006E-1,-3.974914551E-2
9.961108670E1,3.197021484E-1,-1.069946289E-1,-6.729125977E-3
9.971133694E1,4.804992676E-2,-3.189849854E-1,9.262084961E-3
9.981155667E1,2.376708984E-1,3.659820557E-1,-4.040679932E-1
9.991183743E1,-2.086791992E-1,6.791687012E-1,-1.782226562E-1
1.000120572E2,3.739929199E-2,5.449371338E-1,-6.637573242E-2
1.001123074E2,-6.700134277E-2,9.432983398E-2,-3.974914551E-2
1.002125271E2,2.089080811E-1,1.316223145E-1,-3.654479980E-2
1.003127774E2,2.717590332E-1,-2.753143311E-1,-1.270904541E-1
1.004130276E2,3.100585938E-2,-1.219177246E-1,7.637023926E-2
1.005132473E2,1.545867920E-1,5.715789795E-1,-7.170104980E-2
